ID,Trial_Number,Question,ReappraisalText,Rating,rate_RT,Session_date,Q_type,ReappraisalDirection,PunishingType
115105,1,"To what extent would the offer of 10/90 % split, where you would recieve 10%, from this individual feel unfair to you?",Paul lost his house in a fire,2,360,05-25-2017,unfair,2,na
115105,2,Does the previous description provoke your sympathy toward the individual?,Paul lost his house in a fire,3,5489,05-25-2017,sympathy,2,na
115105,3,Does the previous description provoke your anger at the individual?,Paul lost his house in a fire,1,549,05-25-2017,anger,2,na
115105,4,"To what extent would the offer of 10/90 % split, where you would recieve 10%, from this individual feel unfair to you?",Dave lives in a luxury penthouse apartment,2,729,05-25-2017,unfair,1,resources
115105,5,Does the previous description provoke your sympathy toward the individual?,Dave lives in a luxury penthouse apartment,3,12408,05-25-2017,sympathy,1,resources
115105,6,Does the previous description provoke your anger at the individual?,Dave lives in a luxury penthouse apartment,2,193,05-25-2017,anger,1,resources
115105,7,"To what extent would the offer of 10/90 % split, where you would recieve 10%, from this individual feel unfair to you?",Trish's husband is a wealthy investment banker,1,982,05-25-2017,unfair,1,resources
115105,8,Does the previous description provoke your sympathy toward the individual?,Trish's husband is a wealthy investment banker,3,8321,05-25-2017,sympathy,1,resources
115105,9,Does the previous description provoke your anger at the individual?,Trish's husband is a wealthy investment banker,3,5774,05-25-2017,anger,1,resources
115105,10,"To what extent would the offer of 10/90 % split, where you would recieve 10%, from this individual feel unfair to you?",Sarah can't afford to pay her medical bills,2,156,05-25-2017,unfair,2,na
115105,11,Does the previous description provoke your sympathy toward the individual?,Sarah can't afford to pay her medical bills,4,322,05-25-2017,sympathy,2,na
115105,12,Does the previous description provoke your anger at the individual?,Sarah can't afford to pay her medical bills,3,6193,05-25-2017,anger,2,na
115105,13,"To what extent would the offer of 10/90 % split, where you would recieve 10%, from this individual feel unfair to you?",Alyssa just won the lottery,1,430,05-25-2017,unfair,1,resources
115105,14,Does the previous description provoke your sympathy toward the individual?,Alyssa just won the lottery,3,47849,05-25-2017,sympathy,1,resources
115105,15,Does the previous description provoke your anger at the individual?,Alyssa just won the lottery,1,753,05-25-2017,anger,1,resources
115105,16,"To what extent would the offer of 10/90 % split, where you would recieve 10%, from this individual feel unfair to you?",Eva secretly gambles with her husband's savings.,1,1695,05-25-2017,unfair,1,reputation
115105,17,Does the previous description provoke your sympathy toward the individual?,Eva secretly gambles with her husband's savings.,2,245,05-25-2017,sympathy,1,reputation
115105,18,Does the previous description provoke your anger at the individual?,Eva secretly gambles with her husband's savings.,2,237,05-25-2017,anger,1,reputation
115105,19,"To what extent would the offer of 10/90 % split, where you would recieve 10%, from this individual feel unfair to you?",Jenny works two waitressing jobs to pay her bills.,2,181,05-25-2017,unfair,2,na
115105,20,Does the previous description provoke your sympathy toward the individual?,Jenny works two waitressing jobs to pay her bills.,3,7333,05-25-2017,sympathy,2,na
115105,21,Does the previous description provoke your anger at the individual?,Jenny works two waitressing jobs to pay her bills.,1,1096,05-25-2017,anger,2,na
115105,22,"To what extent would the offer of 10/90 % split, where you would recieve 10%, from this individual feel unfair to you?",Penny used her mother's social security number to open a credit card account.,1,272,05-25-2017,unfair,1,reputation
115105,23,Does the previous description provoke your sympathy toward the individual?,Penny used her mother's social security number to open a credit card account.,1,313,05-25-2017,sympathy,1,reputation
115105,24,Does the previous description provoke your anger at the individual?,Penny used her mother's social security number to open a credit card account.,4,139,05-25-2017,anger,1,reputation
115251,1,To what extent would the offer of 10/90 % split from this individual feel unfair to you?,Kyle declared bankruptcy after he was laid off.,1,743,08-10-2016,unfair,2,na
115251,2,To what extent does the description of the individual provoke your sympathy?,Kyle declared bankruptcy after he was laid off.,4,569,08-10-2016,sympathy,2,na
115251,3,To what extent does the description of the individual provoke your anger?,Kyle declared bankruptcy after he was laid off.,1,1912,08-10-2016,anger,2,na
115251,4,To what extent would the offer of 10/90 % split from this individual feel unfair to you?,Peter often goes through and steals the neighbors' mail.,5,539,08-10-2016,unfair,1,reputation
115251,5,To what extent does the description of the individual provoke your sympathy?,Peter often goes through and steals the neighbors' mail.,1,1256,08-10-2016,sympathy,1,reputation
115251,6,To what extent does the description of the individual provoke your anger?,Peter often goes through and steals the neighbors' mail.,5,852,08-10-2016,anger,1,reputation
115251,7,To what extent would the offer of 10/90 % split from this individual feel unfair to you?,Charlie is a well paid lawyer,3,22191,08-10-2016,unfair,1,resources
115251,8,To what extent does the description of the individual provoke your sympathy?,Charlie is a well paid lawyer,1,945,08-10-2016,sympathy,1,resources
115251,9,To what extent does the description of the individual provoke your anger?,Charlie is a well paid lawyer,1,517,08-10-2016,anger,1,resources
115251,10,To what extent would the offer of 10/90 % split from this individual feel unfair to you?,Sarah can't afford to pay her medical bills,1,592,08-10-2016,unfair,2,na
115251,11,To what extent does the description of the individual provoke your sympathy?,Sarah can't afford to pay her medical bills,5,529,08-10-2016,sympathy,2,na
115251,12,To what extent does the description of the individual provoke your anger?,Sarah can't afford to pay her medical bills,1,694,08-10-2016,anger,2,na
115251,13,To what extent would the offer of 10/90 % split from this individual feel unfair to you?,Karen owns an international company,1,629,08-10-2016,unfair,1,resources
115251,14,To what extent does the description of the individual provoke your sympathy?,Karen owns an international company,1,1210,08-10-2016,sympathy,1,resources
115251,15,To what extent does the description of the individual provoke your anger?,Karen owns an international company,1,688,08-10-2016,anger,1,resources
115251,16,To what extent would the offer of 10/90 % split from this individual feel unfair to you?,Emily is a highly paid actress,1,2675,08-10-2016,unfair,1,resources
115251,17,To what extent does the description of the individual provoke your sympathy?,Emily is a highly paid actress,3,9523,08-10-2016,sympathy,1,resources
115251,18,To what extent does the description of the individual provoke your anger?,Emily is a highly paid actress,1,658,08-10-2016,anger,1,resources
115251,19,To what extent would the offer of 10/90 % split from this individual feel unfair to you?,Janet has to take an unpaid leave of absence because her mother broke her hip.,5,2213,08-10-2016,unfair,2,na
115251,20,To what extent does the description of the individual provoke your sympathy?,Janet has to take an unpaid leave of absence because her mother broke her hip.,5,611,08-10-2016,sympathy,2,na
115251,21,To what extent does the description of the individual provoke your anger?,Janet has to take an unpaid leave of absence because her mother broke her hip.,1,991,08-10-2016,anger,2,na
115300,1,"To what extent would the offer of 10/90 % split, where you receive 10%, from this individual feel unfair to you?",Eric stole money from his mother's wallet.,1,1639,04-18-2017,unfair,1,reputation
115300,2,Does the previous description provoke your sympathy toward the individual?,Eric stole money from his mother's wallet.,1,1322,04-18-2017,sympathy,1,reputation
115300,3,Does the previous description provoke your anger at the individual?,Eric stole money from his mother's wallet.,5,1668,04-18-2017,anger,1,reputation
115300,4,"To what extent would the offer of 10/90 % split, where you receive 10%, from this individual feel unfair to you?",Robert was injured in a hit-and-run accident and cannot afford his medical bills.,1,15361,04-18-2017,unfair,2,na
115300,5,Does the previous description provoke your sympathy toward the individual?,Robert was injured in a hit-and-run accident and cannot afford his medical bills.,2,445,04-18-2017,sympathy,2,na
115300,6,Does the previous description provoke your anger at the individual?,Robert was injured in a hit-and-run accident and cannot afford his medical bills.,4,940,04-18-2017,anger,2,na
115300,7,"To what extent would the offer of 10/90 % split, where you receive 10%, from this individual feel unfair to you?",Frank has been unable to find a job for over a year.,1,1084,04-18-2017,unfair,2,na
115300,8,Does the previous description provoke your sympathy toward the individual?,Frank has been unable to find a job for over a year.,2,405,04-18-2017,sympathy,2,na
115300,9,Does the previous description provoke your anger at the individual?,Frank has been unable to find a job for over a year.,1,2671,04-18-2017,anger,2,na
115300,10,"To what extent would the offer of 10/90 % split, where you receive 10%, from this individual feel unfair to you?",Jacob is saving for his son's operation,1,5268,04-18-2017,unfair,2,na
115300,11,Does the previous description provoke your sympathy toward the individual?,Jacob is saving for his son's operation,2,547,04-18-2017,sympathy,2,na
115300,12,Does the previous description provoke your anger at the individual?,Jacob is saving for his son's operation,1,405,04-18-2017,anger,2,na
115300,13,"To what extent would the offer of 10/90 % split, where you receive 10%, from this individual feel unfair to you?",Tim could not afford his mortgage and his home was foreclosed.,1,376,04-18-2017,unfair,2,na
115300,14,Does the previous description provoke your sympathy toward the individual?,Tim could not afford his mortgage and his home was foreclosed.,2,744,04-18-2017,sympathy,2,na
115300,15,Does the previous description provoke your anger at the individual?,Tim could not afford his mortgage and his home was foreclosed.,1,582,04-18-2017,anger,2,na
115300,16,"To what extent would the offer of 10/90 % split, where you receive 10%, from this individual feel unfair to you?",Eva secretly gambles with her husband's savings.,1,2895,04-18-2017,unfair,1,reputation
115300,17,Does the previous description provoke your sympathy toward the individual?,Eva secretly gambles with her husband's savings.,1,544,04-18-2017,sympathy,1,reputation
115300,18,Does the previous description provoke your anger at the individual?,Eva secretly gambles with her husband's savings.,5,657,04-18-2017,anger,1,reputation
115300,19,"To what extent would the offer of 10/90 % split, where you receive 10%, from this individual feel unfair to you?",Anna claims false expenses for her reportable work travel.,2,4807,04-18-2017,unfair,1,reputation
115300,20,Does the previous description provoke your sympathy toward the individual?,Anna claims false expenses for her reportable work travel.,2,1727,04-18-2017,sympathy,1,reputation
115300,21,Does the previous description provoke your anger at the individual?,Anna claims false expenses for her reportable work travel.,4,706,04-18-2017,anger,1,reputation
115300,22,"To what extent would the offer of 10/90 % split, where you receive 10%, from this individual feel unfair to you?",Penny used her mother's social security number to open a credit card account.,1,9332,04-18-2017,unfair,1,reputation
115300,23,Does the previous description provoke your sympathy toward the individual?,Penny used her mother's social security number to open a credit card account.,2,441,04-18-2017,sympathy,1,reputation
115300,24,Does the previous description provoke your anger at the individual?,Penny used her mother's social security number to open a credit card account.,2,1422,04-18-2017,anger,1,reputation
202200,1,"To what extent would the offer of 10/90 % split, where you would recieve 10%, from this individual feel unfair to you?",Dave lives in a luxury penthouse apartment,1,1134,05-15-2017,unfair,1,resources
202200,2,Does the previous description provoke your sympathy toward the individual?,Dave lives in a luxury penthouse apartment,1,826,05-15-2017,sympathy,1,resources
202200,3,Does the previous description provoke your anger at the individual?,Dave lives in a luxury penthouse apartment,4,300,05-15-2017,anger,1,resources
202200,4,"To what extent would the offer of 10/90 % split, where you would recieve 10%, from this individual feel unfair to you?",Dennis is a retiree,2,224,05-15-2017,unfair,2,na
202200,5,Does the previous description provoke your sympathy toward the individual?,Dennis is a retiree,1,237,05-15-2017,sympathy,2,na
202200,6,Does the previous description provoke your anger at the individual?,Dennis is a retiree,3,3041,05-15-2017,anger,2,na
202200,7,"To what extent would the offer of 10/90 % split, where you would recieve 10%, from this individual feel unfair to you?",Devin underreports his company's earnings and pockets the profits.,1,304,05-15-2017,unfair,1,reputation
202200,8,Does the previous description provoke your sympathy toward the individual?,Devin underreports his company's earnings and pockets the profits.,1,270,05-15-2017,sympathy,1,reputation
202200,9,Does the previous description provoke your anger at the individual?,Devin underreports his company's earnings and pockets the profits.,5,327,05-15-2017,anger,1,reputation
202200,10,"To what extent would the offer of 10/90 % split, where you would recieve 10%, from this individual feel unfair to you?",Trish's husband is a wealthy investment banker,1,355,05-15-2017,unfair,1,resources
202200,11,Does the previous description provoke your sympathy toward the individual?,Trish's husband is a wealthy investment banker,1,313,05-15-2017,sympathy,1,resources
202200,12,Does the previous description provoke your anger at the individual?,Trish's husband is a wealthy investment banker,5,386,05-15-2017,anger,1,resources
202200,13,"To what extent would the offer of 10/90 % split, where you would recieve 10%, from this individual feel unfair to you?",Martha is a single mother,3,7001,05-15-2017,unfair,2,na
202200,14,Does the previous description provoke your sympathy toward the individual?,Martha is a single mother,3,3588,05-15-2017,sympathy,2,na
202200,15,Does the previous description provoke your anger at the individual?,Martha is a single mother,3,2708,05-15-2017,anger,2,na
202200,16,"To what extent would the offer of 10/90 % split, where you would recieve 10%, from this individual feel unfair to you?",Alice regularly fires employees to avoid promoting them.,1,295,05-15-2017,unfair,1,reputation
202200,17,Does the previous description provoke your sympathy toward the individual?,Alice regularly fires employees to avoid promoting them.,1,307,05-15-2017,sympathy,1,reputation
202200,18,Does the previous description provoke your anger at the individual?,Alice regularly fires employees to avoid promoting them.,5,327,05-15-2017,anger,1,reputation
202200,19,"To what extent would the offer of 10/90 % split, where you would recieve 10%, from this individual feel unfair to you?",Penny used her mother's social security number to open a credit card account.,1,351,05-15-2017,unfair,1,reputation
202200,20,Does the previous description provoke your sympathy toward the individual?,Penny used her mother's social security number to open a credit card account.,4,789,05-15-2017,sympathy,1,reputation
202200,21,Does the previous description provoke your anger at the individual?,Penny used her mother's social security number to open a credit card account.,3,5914,05-15-2017,anger,1,reputation
202278,1,"To what extent would the offer of 10/90 % split, where you would recieve 10%, from this individual feel unfair to you?",Dan is a veteran having trouble finding employment.,5,3679,10-27-2017,unfair,2,na
202278,2,Does the previous description provoke your sympathy toward the individual?,Dan is a veteran having trouble finding employment.,5,2047,10-27-2017,sympathy,2,na
202278,3,Does the previous description provoke your anger at the individual?,Dan is a veteran having trouble finding employment.,1,1520,10-27-2017,anger,2,na
202278,4,"To what extent would the offer of 10/90 % split, where you would recieve 10%, from this individual feel unfair to you?",Jack was mugged and had his wallet stolen.,1,1903,10-27-2017,unfair,2,na
202278,5,Does the previous description provoke your sympathy toward the individual?,Jack was mugged and had his wallet stolen.,5,1393,10-27-2017,sympathy,2,na
202278,6,Does the previous description provoke your anger at the individual?,Jack was mugged and had his wallet stolen.,1,1037,10-27-2017,anger,2,na
202278,7,"To what extent would the offer of 10/90 % split, where you would recieve 10%, from this individual feel unfair to you?",Jacob is saving for his son's operation,1,1301,10-27-2017,unfair,2,na
202278,8,Does the previous description provoke your sympathy toward the individual?,Jacob is saving for his son's operation,5,1231,10-27-2017,sympathy,2,na
202278,9,Does the previous description provoke your anger at the individual?,Jacob is saving for his son's operation,1,951,10-27-2017,anger,2,na
202278,10,"To what extent would the offer of 10/90 % split, where you would recieve 10%, from this individual feel unfair to you?",Jean is going to be evicted because she is behind on her rent,1,936,10-27-2017,unfair,2,na
202278,11,Does the previous description provoke your sympathy toward the individual?,Jean is going to be evicted because she is behind on her rent,5,935,10-27-2017,sympathy,2,na
202278,12,Does the previous description provoke your anger at the individual?,Jean is going to be evicted because she is behind on her rent,1,839,10-27-2017,anger,2,na
202278,13,"To what extent would the offer of 10/90 % split, where you would recieve 10%, from this individual feel unfair to you?",Martha is a single mother,2,1024,10-27-2017,unfair,2,na
202278,14,Does the previous description provoke your sympathy toward the individual?,Martha is a single mother,4,947,10-27-2017,sympathy,2,na
202278,15,Does the previous description provoke your anger at the individual?,Martha is a single mother,1,882,10-27-2017,anger,2,na
202278,16,"To what extent would the offer of 10/90 % split, where you would recieve 10%, from this individual feel unfair to you?",Alice regularly fires employees to avoid promoting them.,5,1308,10-27-2017,unfair,1,reputation
202278,17,Does the previous description provoke your sympathy toward the individual?,Alice regularly fires employees to avoid promoting them.,1,793,10-27-2017,sympathy,1,reputation
202278,18,Does the previous description provoke your anger at the individual?,Alice regularly fires employees to avoid promoting them.,4,2379,10-27-2017,anger,1,reputation
202278,19,"To what extent would the offer of 10/90 % split, where you would recieve 10%, from this individual feel unfair to you?",Fay was a victim of identity theft and is now thousands of dollars in debt.,1,899,10-27-2017,unfair,2,na
202278,20,Does the previous description provoke your sympathy toward the individual?,Fay was a victim of identity theft and is now thousands of dollars in debt.,4,3703,10-27-2017,sympathy,2,na
202278,21,Does the previous description provoke your anger at the individual?,Fay was a victim of identity theft and is now thousands of dollars in debt.,1,822,10-27-2017,anger,2,na
202278,22,"To what extent would the offer of 10/90 % split, where you would recieve 10%, from this individual feel unfair to you?",Jenny works two waitressing jobs to pay her bills.,1,1209,10-27-2017,unfair,2,na
202278,23,Does the previous description provoke your sympathy toward the individual?,Jenny works two waitressing jobs to pay her bills.,4,995,10-27-2017,sympathy,2,na
202278,24,Does the previous description provoke your anger at the individual?,Jenny works two waitressing jobs to pay her bills.,1,987,10-27-2017,anger,2,na
203803,1,"To what extent would the offer of 10/90 % split, where you receive 10%, from this individual feel unfair to you?",Paul lost his house in a fire,5,10770,06-23-2017,unfair,2,na
203803,2,Does the previous description provoke your sympathy toward the individual?,Paul lost his house in a fire,5,933,06-23-2017,sympathy,2,na
203803,3,Does the previous description provoke your anger at the individual?,Paul lost his house in a fire,1,586,06-23-2017,anger,2,na
203803,4,"To what extent would the offer of 10/90 % split, where you receive 10%, from this individual feel unfair to you?",Nick just found $50 on the street,5,1781,06-23-2017,unfair,1,resources
203803,5,Does the previous description provoke your sympathy toward the individual?,Nick just found $50 on the street,3,396,06-23-2017,sympathy,1,resources
203803,6,Does the previous description provoke your anger at the individual?,Nick just found $50 on the street,1,603,06-23-2017,anger,1,resources
203803,7,"To what extent would the offer of 10/90 % split, where you receive 10%, from this individual feel unfair to you?",Steve cheated on his taxes and is now under investigation for tax fraud.,1,547,06-23-2017,unfair,1,reputation
203803,8,Does the previous description provoke your sympathy toward the individual?,Steve cheated on his taxes and is now under investigation for tax fraud.,1,535,06-23-2017,sympathy,1,reputation
203803,9,Does the previous description provoke your anger at the individual?,Steve cheated on his taxes and is now under investigation for tax fraud.,5,901,06-23-2017,anger,1,reputation
203803,10,"To what extent would the offer of 10/90 % split, where you receive 10%, from this individual feel unfair to you?",Mike just lost his job,5,2634,06-23-2017,unfair,2,na
203803,11,Does the previous description provoke your sympathy toward the individual?,Mike just lost his job,5,1293,06-23-2017,sympathy,2,na
203803,12,Does the previous description provoke your anger at the individual?,Mike just lost his job,1,976,06-23-2017,anger,2,na
203803,13,"To what extent would the offer of 10/90 % split, where you receive 10%, from this individual feel unfair to you?",Jean is going to be evicted because she is behind on her rent,5,902,06-23-2017,unfair,2,na
203803,14,Does the previous description provoke your sympathy toward the individual?,Jean is going to be evicted because she is behind on her rent,5,517,06-23-2017,sympathy,2,na
203803,15,Does the previous description provoke your anger at the individual?,Jean is going to be evicted because she is behind on her rent,1,705,06-23-2017,anger,2,na
203803,16,"To what extent would the offer of 10/90 % split, where you receive 10%, from this individual feel unfair to you?",Karen owns an international company,3,12411,06-23-2017,unfair,1,resources
203803,17,Does the previous description provoke your sympathy toward the individual?,Karen owns an international company,1,641,06-23-2017,sympathy,1,resources
203803,18,Does the previous description provoke your anger at the individual?,Karen owns an international company,3,4116,06-23-2017,anger,1,resources
203803,19,"To what extent would the offer of 10/90 % split, where you receive 10%, from this individual feel unfair to you?",Christina received a large inheritance from a distant relative,1,1251,06-23-2017,unfair,1,resources
203803,20,Does the previous description provoke your sympathy toward the individual?,Christina received a large inheritance from a distant relative,1,562,06-23-2017,sympathy,1,resources
203803,21,Does the previous description provoke your anger at the individual?,Christina received a large inheritance from a distant relative,4,650,06-23-2017,anger,1,resources
203803,22,"To what extent would the offer of 10/90 % split, where you receive 10%, from this individual feel unfair to you?",Martha is a single mother,5,431,06-23-2017,unfair,2,na
203803,23,Does the previous description provoke your sympathy toward the individual?,Martha is a single mother,5,457,06-23-2017,sympathy,2,na
203803,24,Does the previous description provoke your anger at the individual?,Martha is a single mother,1,318,06-23-2017,anger,2,na
204015,1,"To what extent would the offer of 10/90 % split, where you would recieve 10%, from this individual feel unfair to you?",Eric stole money from his mother's wallet.,1,11831,05-03-2017,unfair,1,reputation
204015,2,Does the previous description provoke your sympathy toward the individual?,Eric stole money from his mother's wallet.,1,1153,05-03-2017,sympathy,1,reputation
204015,3,Does the previous description provoke your anger at the individual?,Eric stole money from his mother's wallet.,4,1587,05-03-2017,anger,1,reputation
204015,4,"To what extent would the offer of 10/90 % split, where you would recieve 10%, from this individual feel unfair to you?",Bill lost his life savings when his small business failed,1,1824,05-03-2017,unfair,2,na
204015,5,Does the previous description provoke your sympathy toward the individual?,Bill lost his life savings when his small business failed,5,1317,05-03-2017,sympathy,2,na
204015,6,Does the previous description provoke your anger at the individual?,Bill lost his life savings when his small business failed,1,1058,05-03-2017,anger,2,na
204015,7,"To what extent would the offer of 10/90 % split, where you would recieve 10%, from this individual feel unfair to you?",Robert was injured in a hit-and-run accident and cannot afford his medical bills.,1,1444,05-03-2017,unfair,2,na
204015,8,Does the previous description provoke your sympathy toward the individual?,Robert was injured in a hit-and-run accident and cannot afford his medical bills.,4,1083,05-03-2017,sympathy,2,na
204015,9,Does the previous description provoke your anger at the individual?,Robert was injured in a hit-and-run accident and cannot afford his medical bills.,1,2538,05-03-2017,anger,2,na
204015,10,"To what extent would the offer of 10/90 % split, where you would recieve 10%, from this individual feel unfair to you?",Jack was mugged and had his wallet stolen.,1,2063,05-03-2017,unfair,2,na
204015,11,Does the previous description provoke your sympathy toward the individual?,Jack was mugged and had his wallet stolen.,5,968,05-03-2017,sympathy,2,na
204015,12,Does the previous description provoke your anger at the individual?,Jack was mugged and had his wallet stolen.,1,538,05-03-2017,anger,2,na
204015,13,"To what extent would the offer of 10/90 % split, where you would recieve 10%, from this individual feel unfair to you?",Dennis is a retiree,1,1452,05-03-2017,unfair,2,na
204015,14,Does the previous description provoke your sympathy toward the individual?,Dennis is a retiree,4,1075,05-03-2017,sympathy,2,na
204015,15,Does the previous description provoke your anger at the individual?,Dennis is a retiree,1,502,05-03-2017,anger,2,na
204015,16,"To what extent would the offer of 10/90 % split, where you would recieve 10%, from this individual feel unfair to you?",Mac just bought an expensive sports car,1,718,05-03-2017,unfair,1,resources
204015,17,Does the previous description provoke your sympathy toward the individual?,Mac just bought an expensive sports car,1,1505,05-03-2017,sympathy,1,resources
204015,18,Does the previous description provoke your anger at the individual?,Mac just bought an expensive sports car,1,1328,05-03-2017,anger,1,resources
204015,19,"To what extent would the offer of 10/90 % split, where you would recieve 10%, from this individual feel unfair to you?",Becky works as a cleaner in a hotel,1,533,05-03-2017,unfair,2,na
204015,20,Does the previous description provoke your sympathy toward the individual?,Becky works as a cleaner in a hotel,4,1394,05-03-2017,sympathy,2,na
204015,21,Does the previous description provoke your anger at the individual?,Becky works as a cleaner in a hotel,1,539,05-03-2017,anger,2,na
204015,22,"To what extent would the offer of 10/90 % split, where you would recieve 10%, from this individual feel unfair to you?",Sharon just lost her small business after a franchise moved in next door.,1,572,05-03-2017,unfair,2,na
204015,23,Does the previous description provoke your sympathy toward the individual?,Sharon just lost her small business after a franchise moved in next door.,5,459,05-03-2017,sympathy,2,na
204015,24,Does the previous description provoke your anger at the individual?,Sharon just lost her small business after a franchise moved in next door.,1,1286,05-03-2017,anger,2,na
204059,1,To what extent would the offer of 10/90 % split from this individual feel unfair to you?,Nick just found $50 on the street,1,3361,09-15-2016,unfair,1,resources
204059,2,To what extent does the description of the individual provoke your sympathy?,Nick just found $50 on the street,1,4042,09-15-2016,sympathy,1,resources
204059,3,To what extent does the description of the individual provoke your anger?,Nick just found $50 on the street,1,3094,09-15-2016,anger,1,resources
204059,4,To what extent would the offer of 10/90 % split from this individual feel unfair to you?,Dave lives in a luxury penthouse apartment,4,1332,09-15-2016,unfair,1,resources
204059,5,To what extent does the description of the individual provoke your sympathy?,Dave lives in a luxury penthouse apartment,1,1413,09-15-2016,sympathy,1,resources
204059,6,To what extent does the description of the individual provoke your anger?,Dave lives in a luxury penthouse apartment,2,1487,09-15-2016,anger,1,resources
204059,7,To what extent would the offer of 10/90 % split from this individual feel unfair to you?,Cecil takes valuables from his friends' homes when asked to house-sit.,1,940,09-15-2016,unfair,1,reputation
204059,8,To what extent does the description of the individual provoke your sympathy?,Cecil takes valuables from his friends' homes when asked to house-sit.,1,408,09-15-2016,sympathy,1,reputation
204059,9,To what extent does the description of the individual provoke your anger?,Cecil takes valuables from his friends' homes when asked to house-sit.,1,6813,09-15-2016,anger,1,reputation
204059,10,To what extent would the offer of 10/90 % split from this individual feel unfair to you?,Peter often goes through and steals the neighbors' mail.,1,1156,09-15-2016,unfair,1,reputation
204059,11,To what extent does the description of the individual provoke your sympathy?,Peter often goes through and steals the neighbors' mail.,1,1506,09-15-2016,sympathy,1,reputation
204059,12,To what extent does the description of the individual provoke your anger?,Peter often goes through and steals the neighbors' mail.,1,1306,09-15-2016,anger,1,reputation
204059,13,To what extent would the offer of 10/90 % split from this individual feel unfair to you?,Abby cannot afford to send her son to college.,1,408,09-15-2016,unfair,2,na
204059,14,To what extent does the description of the individual provoke your sympathy?,Abby cannot afford to send her son to college.,1,560,09-15-2016,sympathy,2,na
204059,15,To what extent does the description of the individual provoke your anger?,Abby cannot afford to send her son to college.,1,1159,09-15-2016,anger,2,na
204059,16,To what extent would the offer of 10/90 % split from this individual feel unfair to you?,Fay was a victim of identity theft and is now thousands of dollars in debt.,1,1213,09-15-2016,unfair,2,na
204059,17,To what extent does the description of the individual provoke your sympathy?,Fay was a victim of identity theft and is now thousands of dollars in debt.,1,2940,09-15-2016,sympathy,2,na
204059,18,To what extent does the description of the individual provoke your anger?,Fay was a victim of identity theft and is now thousands of dollars in debt.,1,1349,09-15-2016,anger,2,na
204059,19,To what extent would the offer of 10/90 % split from this individual feel unfair to you?,Kay steals her coworkers' tips to buy alcohol.,1,2782,09-15-2016,unfair,1,reputation
204059,20,To what extent does the description of the individual provoke your sympathy?,Kay steals her coworkers' tips to buy alcohol.,4,1061,09-15-2016,sympathy,1,reputation
204059,21,To what extent does the description of the individual provoke your anger?,Kay steals her coworkers' tips to buy alcohol.,1,1027,09-15-2016,anger,1,reputation
204059,22,To what extent would the offer of 10/90 % split from this individual feel unfair to you?,Marny just found out that her husband has incurred a large credit card debt.,1,682,09-15-2016,unfair,2,na
204059,23,To what extent does the description of the individual provoke your sympathy?,Marny just found out that her husband has incurred a large credit card debt.,1,718,09-15-2016,sympathy,2,na
204059,24,To what extent does the description of the individual provoke your anger?,Marny just found out that her husband has incurred a large credit card debt.,1,825,09-15-2016,anger,2,na
206270,1,To what extent would the offer of 10/90 % split from this individual feel unfair to you?,Robert was injured in a hit-and-run accident and cannot afford his medical bills.,5,2013,09-27-2016,unfair,2,na
206270,2,To what extent does the description of the individual provoke your sympathy?,Robert was injured in a hit-and-run accident and cannot afford his medical bills.,5,1377,09-27-2016,sympathy,2,na
206270,3,To what extent does the description of the individual provoke your anger?,Robert was injured in a hit-and-run accident and cannot afford his medical bills.,1,1434,09-27-2016,anger,2,na
206270,4,To what extent would the offer of 10/90 % split from this individual feel unfair to you?,Frank has been unable to find a job for over a year.,5,1815,09-27-2016,unfair,2,na
206270,5,To what extent does the description of the individual provoke your sympathy?,Frank has been unable to find a job for over a year.,5,1218,09-27-2016,sympathy,2,na
206270,6,To what extent does the description of the individual provoke your anger?,Frank has been unable to find a job for over a year.,1,1119,09-27-2016,anger,2,na
206270,7,To what extent would the offer of 10/90 % split from this individual feel unfair to you?,Jacob is saving for his son's operation,5,1052,09-27-2016,unfair,2,na
206270,8,To what extent does the description of the individual provoke your sympathy?,Jacob is saving for his son's operation,5,3563,09-27-2016,sympathy,2,na
206270,9,To what extent does the description of the individual provoke your anger?,Jacob is saving for his son's operation,1,822,09-27-2016,anger,2,na
206270,10,To what extent would the offer of 10/90 % split from this individual feel unfair to you?,Ted bullies his employees to put in extra hours at work.,1,1654,09-27-2016,unfair,1,reputation
206270,11,To what extent does the description of the individual provoke your sympathy?,Ted bullies his employees to put in extra hours at work.,1,2715,09-27-2016,sympathy,1,reputation
206270,12,To what extent does the description of the individual provoke your anger?,Ted bullies his employees to put in extra hours at work.,5,3733,09-27-2016,anger,1,reputation
206270,13,To what extent would the offer of 10/90 % split from this individual feel unfair to you?,Karen owns an international company,1,3155,09-27-2016,unfair,1,resources
206270,14,To what extent does the description of the individual provoke your sympathy?,Karen owns an international company,1,1267,09-27-2016,sympathy,1,resources
206270,15,To what extent does the description of the individual provoke your anger?,Karen owns an international company,1,3803,09-27-2016,anger,1,resources
206270,16,To what extent would the offer of 10/90 % split from this individual feel unfair to you?,Janet has to take an unpaid leave of absence because her mother broke her hip.,4,3956,09-27-2016,unfair,2,na
206270,17,To what extent does the description of the individual provoke your sympathy?,Janet has to take an unpaid leave of absence because her mother broke her hip.,4,2121,09-27-2016,sympathy,2,na
206270,18,To what extent does the description of the individual provoke your anger?,Janet has to take an unpaid leave of absence because her mother broke her hip.,1,692,09-27-2016,anger,2,na
207224,1,To what extent would the offer of 10/90 % split from this individual feel unfair to you?,Robert was injured in a hit-and-run accident and cannot afford his medical bills.,1,357,08-08-2016,unfair,2,na
207224,2,To what extent does the description of the individual provoke your sympathy?,Robert was injured in a hit-and-run accident and cannot afford his medical bills.,3,55,08-08-2016,sympathy,2,na
207224,3,To what extent does the description of the individual provoke your anger?,Robert was injured in a hit-and-run accident and cannot afford his medical bills.,1,358,08-08-2016,anger,2,na
207224,4,To what extent would the offer of 10/90 % split from this individual feel unfair to you?,Larry employs illegal immigrants and pays them less than minimum wage.,5,813,08-08-2016,unfair,1,reputation
207224,5,To what extent does the description of the individual provoke your sympathy?,Larry employs illegal immigrants and pays them less than minimum wage.,1,1575,08-08-2016,sympathy,1,reputation
207224,6,To what extent does the description of the individual provoke your anger?,Larry employs illegal immigrants and pays them less than minimum wage.,5,238,08-08-2016,anger,1,reputation
207224,7,To what extent would the offer of 10/90 % split from this individual feel unfair to you?,Becky works as a cleaner in a hotel,1,2435,08-08-2016,unfair,2,na
207224,8,To what extent does the description of the individual provoke your sympathy?,Becky works as a cleaner in a hotel,4,300,08-08-2016,sympathy,2,na
207224,9,To what extent does the description of the individual provoke your anger?,Becky works as a cleaner in a hotel,1,697,08-08-2016,anger,2,na
207224,10,To what extent would the offer of 10/90 % split from this individual feel unfair to you?,Trish's husband is a wealthy investment banker,5,3932,08-08-2016,unfair,1,resources
207224,11,To what extent does the description of the individual provoke your sympathy?,Trish's husband is a wealthy investment banker,1,1209,08-08-2016,sympathy,1,resources
207224,12,To what extent does the description of the individual provoke your anger?,Trish's husband is a wealthy investment banker,3,216,08-08-2016,anger,1,resources
207224,13,To what extent would the offer of 10/90 % split from this individual feel unfair to you?,Jean is going to be evicted because she is behind on her rent,5,2079,08-08-2016,unfair,2,na
207224,14,To what extent does the description of the individual provoke your sympathy?,Jean is going to be evicted because she is behind on her rent,5,244,08-08-2016,sympathy,2,na
207224,15,To what extent does the description of the individual provoke your anger?,Jean is going to be evicted because she is behind on her rent,1,263,08-08-2016,anger,2,na
207224,16,To what extent would the offer of 10/90 % split from this individual feel unfair to you?,Martha is a single mother,1,1148,08-08-2016,unfair,2,na
207224,17,To what extent does the description of the individual provoke your sympathy?,Martha is a single mother,5,354,08-08-2016,sympathy,2,na
207224,18,To what extent does the description of the individual provoke your anger?,Martha is a single mother,1,244,08-08-2016,anger,2,na
207224,19,To what extent would the offer of 10/90 % split from this individual feel unfair to you?,Penny used her mother's social security number to open a credit card account.,5,1517,08-08-2016,unfair,1,reputation
207224,20,To what extent does the description of the individual provoke your sympathy?,Penny used her mother's social security number to open a credit card account.,1,455,08-08-2016,sympathy,1,reputation
207224,21,To what extent does the description of the individual provoke your anger?,Penny used her mother's social security number to open a credit card account.,4,428,08-08-2016,anger,1,reputation
207224,22,To what extent would the offer of 10/90 % split from this individual feel unfair to you?,Marny just found out that her husband has incurred a large credit card debt.,1,3264,08-08-2016,unfair,2,na
207224,23,To what extent does the description of the individual provoke your sympathy?,Marny just found out that her husband has incurred a large credit card debt.,4,759,08-08-2016,sympathy,2,na
207224,24,To what extent does the description of the individual provoke your anger?,Marny just found out that her husband has incurred a large credit card debt.,1,154,08-08-2016,anger,2,na
208427,1,"To what extent would the offer of 10/90 % split, where you receive 10%, from this individual feel unfair to you?",Dave lives in a luxury penthouse apartment,1,438,05-08-2017,unfair,1,resources
208427,2,Does the previous description provoke your sympathy toward the individual?,Dave lives in a luxury penthouse apartment,3,7554,05-08-2017,sympathy,1,resources
208427,3,Does the previous description provoke your anger at the individual?,Dave lives in a luxury penthouse apartment,1,188,05-08-2017,anger,1,resources
208427,4,"To what extent would the offer of 10/90 % split, where you receive 10%, from this individual feel unfair to you?",Eric stole money from his mother's wallet.,1,733,05-08-2017,unfair,1,reputation
208427,5,Does the previous description provoke your sympathy toward the individual?,Eric stole money from his mother's wallet.,1,218,05-08-2017,sympathy,1,reputation
208427,6,Does the previous description provoke your anger at the individual?,Eric stole money from his mother's wallet.,5,1301,05-08-2017,anger,1,reputation
208427,7,"To what extent would the offer of 10/90 % split, where you receive 10%, from this individual feel unfair to you?",Steve cheated on his taxes and is now under investigation for tax fraud.,1,243,05-08-2017,unfair,1,reputation
208427,8,Does the previous description provoke your sympathy toward the individual?,Steve cheated on his taxes and is now under investigation for tax fraud.,1,260,05-08-2017,sympathy,1,reputation
208427,9,Does the previous description provoke your anger at the individual?,Steve cheated on his taxes and is now under investigation for tax fraud.,3,2778,05-08-2017,anger,1,reputation
208427,10,"To what extent would the offer of 10/90 % split, where you receive 10%, from this individual feel unfair to you?",Andrew is hiding his taxable income in Switzerland.,1,235,05-08-2017,unfair,1,reputation
208427,11,Does the previous description provoke your sympathy toward the individual?,Andrew is hiding his taxable income in Switzerland.,1,1303,05-08-2017,sympathy,1,reputation
208427,12,Does the previous description provoke your anger at the individual?,Andrew is hiding his taxable income in Switzerland.,3,1122,05-08-2017,anger,1,reputation
208427,13,"To what extent would the offer of 10/90 % split, where you receive 10%, from this individual feel unfair to you?",Abby cannot afford to send her son to college.,5,976,05-08-2017,unfair,2,na
208427,14,Does the previous description provoke your sympathy toward the individual?,Abby cannot afford to send her son to college.,5,1216,05-08-2017,sympathy,2,na
208427,15,Does the previous description provoke your anger at the individual?,Abby cannot afford to send her son to college.,1,646,05-08-2017,anger,2,na
208427,16,"To what extent would the offer of 10/90 % split, where you receive 10%, from this individual feel unfair to you?",Rose takes discarded food from grocery stores to feed her children.,5,880,05-08-2017,unfair,2,na
208427,17,Does the previous description provoke your sympathy toward the individual?,Rose takes discarded food from grocery stores to feed her children.,5,246,05-08-2017,sympathy,2,na
208427,18,Does the previous description provoke your anger at the individual?,Rose takes discarded food from grocery stores to feed her children.,1,256,05-08-2017,anger,2,na
208427,19,"To what extent would the offer of 10/90 % split, where you receive 10%, from this individual feel unfair to you?",Angela illegally parks in the disabled parking spots when she can.,3,8691,05-08-2017,unfair,1,reputation
208427,20,Does the previous description provoke your sympathy toward the individual?,Angela illegally parks in the disabled parking spots when she can.,3,4385,05-08-2017,sympathy,1,reputation
208427,21,Does the previous description provoke your anger at the individual?,Angela illegally parks in the disabled parking spots when she can.,1,595,05-08-2017,anger,1,reputation
208427,22,"To what extent would the offer of 10/90 % split, where you receive 10%, from this individual feel unfair to you?",Marny just found out that her husband has incurred a large credit card debt.,5,1864,05-08-2017,unfair,2,na
208427,23,Does the previous description provoke your sympathy toward the individual?,Marny just found out that her husband has incurred a large credit card debt.,1,1431,05-08-2017,sympathy,2,na
208427,24,Does the previous description provoke your anger at the individual?,Marny just found out that her husband has incurred a large credit card debt.,1,233,05-08-2017,anger,2,na
208510,1,To what extent would the offer of 10/90 % split from this individual feel unfair to you?,Dave lives in a luxury penthouse apartment,3,2251,05-24-2016,unfair,1,resources
208510,2,To what extent does the description of the individual provoke your sympathy?,Dave lives in a luxury penthouse apartment,1,4026,05-24-2016,sympathy,1,resources
208510,3,To what extent does the description of the individual provoke your anger?,Dave lives in a luxury penthouse apartment,1,1627,05-24-2016,anger,1,resources
208510,4,To what extent would the offer of 10/90 % split from this individual feel unfair to you?,Robert was injured in a hit-and-run accident and cannot afford his medical bills.,1,3164,05-24-2016,unfair,2,na
208510,5,To what extent does the description of the individual provoke your sympathy?,Robert was injured in a hit-and-run accident and cannot afford his medical bills.,1,2115,05-24-2016,sympathy,2,na
208510,6,To what extent does the description of the individual provoke your anger?,Robert was injured in a hit-and-run accident and cannot afford his medical bills.,1,2175,05-24-2016,anger,2,na
208510,7,To what extent would the offer of 10/90 % split from this individual feel unfair to you?,Devin underreports his company's earnings and pockets the profits.,4,11338,05-24-2016,unfair,1,reputation
208510,8,To what extent does the description of the individual provoke your sympathy?,Devin underreports his company's earnings and pockets the profits.,1,2093,05-24-2016,sympathy,1,reputation
208510,9,To what extent does the description of the individual provoke your anger?,Devin underreports his company's earnings and pockets the profits.,5,5077,05-24-2016,anger,1,reputation
208510,10,To what extent would the offer of 10/90 % split from this individual feel unfair to you?,Abby cannot afford to send her son to college.,1,2582,05-24-2016,unfair,2,na
208510,11,To what extent does the description of the individual provoke your sympathy?,Abby cannot afford to send her son to college.,5,2106,05-24-2016,sympathy,2,na
208510,12,To what extent does the description of the individual provoke your anger?,Abby cannot afford to send her son to college.,1,4622,05-24-2016,anger,2,na
208510,13,To what extent would the offer of 10/90 % split from this individual feel unfair to you?,Alice regularly fires employees to avoid promoting them.,4,2045,05-24-2016,unfair,1,reputation
208510,14,To what extent does the description of the individual provoke your sympathy?,Alice regularly fires employees to avoid promoting them.,1,1871,05-24-2016,sympathy,1,reputation
208510,15,To what extent does the description of the individual provoke your anger?,Alice regularly fires employees to avoid promoting them.,5,1902,05-24-2016,anger,1,reputation
208510,16,To what extent would the offer of 10/90 % split from this individual feel unfair to you?,Anna claims false expenses for her reportable work travel.,5,1678,05-24-2016,unfair,1,reputation
208510,17,To what extent does the description of the individual provoke your sympathy?,Anna claims false expenses for her reportable work travel.,1,1922,05-24-2016,sympathy,1,reputation
208510,18,To what extent does the description of the individual provoke your anger?,Anna claims false expenses for her reportable work travel.,5,1488,05-24-2016,anger,1,reputation
208510,19,To what extent would the offer of 10/90 % split from this individual feel unfair to you?,Maria is raising money to buy gifts for children in need.,1,1950,05-24-2016,unfair,2,na
208510,20,To what extent does the description of the individual provoke your sympathy?,Maria is raising money to buy gifts for children in need.,1,1535,05-24-2016,sympathy,2,na
208510,21,To what extent does the description of the individual provoke your anger?,Maria is raising money to buy gifts for children in need.,1,1927,05-24-2016,anger,2,na
209468,1,To what extent would the offer of 10/90 % split from this individual feel unfair to you?,Dave lives in a luxury penthouse apartment,5,1534,08-24-2016,unfair,1,resources
209468,2,To what extent does the description of the individual provoke your sympathy?,Dave lives in a luxury penthouse apartment,3,14407,08-24-2016,sympathy,1,resources
209468,3,To what extent does the description of the individual provoke your anger?,Dave lives in a luxury penthouse apartment,1,827,08-24-2016,anger,1,resources
209468,4,To what extent would the offer of 10/90 % split from this individual feel unfair to you?,Kyle declared bankruptcy after he was laid off.,3,10719,08-24-2016,unfair,2,na
209468,5,To what extent does the description of the individual provoke your sympathy?,Kyle declared bankruptcy after he was laid off.,3,5722,08-24-2016,sympathy,2,na
209468,6,To what extent does the description of the individual provoke your anger?,Kyle declared bankruptcy after he was laid off.,1,826,08-24-2016,anger,2,na
209468,7,To what extent would the offer of 10/90 % split from this individual feel unfair to you?,Charlie is a well paid lawyer,5,1055,08-24-2016,unfair,1,resources
209468,8,To what extent does the description of the individual provoke your sympathy?,Charlie is a well paid lawyer,3,6590,08-24-2016,sympathy,1,resources
209468,9,To what extent does the description of the individual provoke your anger?,Charlie is a well paid lawyer,1,761,08-24-2016,anger,1,resources
209468,10,To what extent would the offer of 10/90 % split from this individual feel unfair to you?,Mike just lost his job,1,4321,08-24-2016,unfair,2,na
209468,11,To what extent does the description of the individual provoke your sympathy?,Mike just lost his job,5,757,08-24-2016,sympathy,2,na
209468,12,To what extent does the description of the individual provoke your anger?,Mike just lost his job,1,2574,08-24-2016,anger,2,na
209468,13,To what extent would the offer of 10/90 % split from this individual feel unfair to you?,Becky works as a cleaner in a hotel,1,2094,08-24-2016,unfair,2,na
209468,14,To what extent does the description of the individual provoke your sympathy?,Becky works as a cleaner in a hotel,3,6181,08-24-2016,sympathy,2,na
209468,15,To what extent does the description of the individual provoke your anger?,Becky works as a cleaner in a hotel,1,543,08-24-2016,anger,2,na
209468,16,To what extent would the offer of 10/90 % split from this individual feel unfair to you?,Emily is a highly paid actress,5,1007,08-24-2016,unfair,1,resources
209468,17,To what extent does the description of the individual provoke your sympathy?,Emily is a highly paid actress,3,1332,08-24-2016,sympathy,1,resources
209468,18,To what extent does the description of the individual provoke your anger?,Emily is a highly paid actress,1,2103,08-24-2016,anger,1,resources
209468,19,To what extent would the offer of 10/90 % split from this individual feel unfair to you?,Miriam just received a huge cash settlement,5,770,08-24-2016,unfair,1,resources
209468,20,To what extent does the description of the individual provoke your sympathy?,Miriam just received a huge cash settlement,3,1069,08-24-2016,sympathy,1,resources
209468,21,To what extent does the description of the individual provoke your anger?,Miriam just received a huge cash settlement,1,376,08-24-2016,anger,1,resources
209468,22,To what extent would the offer of 10/90 % split from this individual feel unfair to you?,Louise's car with her bag and credit cards was recently stolen.,1,764,08-24-2016,unfair,2,na
209468,23,To what extent does the description of the individual provoke your sympathy?,Louise's car with her bag and credit cards was recently stolen.,5,1076,08-24-2016,sympathy,2,na
209468,24,To what extent does the description of the individual provoke your anger?,Louise's car with her bag and credit cards was recently stolen.,1,893,08-24-2016,anger,2,na
209662,1,"To what extent would the offer of 10/90 % split, where you receive 10%, from this individual feel unfair to you?",Paul lost his house in a fire,5,4750,02-22-2017,unfair,2,na
209662,2,Does the previous description provoke your sympathy toward the individual?,Paul lost his house in a fire,5,4268,02-22-2017,sympathy,2,na
209662,3,Does the previous description provoke your anger at the individual?,Paul lost his house in a fire,1,3712,02-22-2017,anger,2,na
209662,4,"To what extent would the offer of 10/90 % split, where you receive 10%, from this individual feel unfair to you?",Robert was injured in a hit-and-run accident and cannot afford his medical bills.,5,3634,02-22-2017,unfair,2,na
209662,5,Does the previous description provoke your sympathy toward the individual?,Robert was injured in a hit-and-run accident and cannot afford his medical bills.,5,1597,02-22-2017,sympathy,2,na
209662,6,Does the previous description provoke your anger at the individual?,Robert was injured in a hit-and-run accident and cannot afford his medical bills.,1,1669,02-22-2017,anger,2,na
209662,7,"To what extent would the offer of 10/90 % split, where you receive 10%, from this individual feel unfair to you?",Charlie is a well paid lawyer,3,27726,02-22-2017,unfair,1,resources
209662,8,Does the previous description provoke your sympathy toward the individual?,Charlie is a well paid lawyer,3,4029,02-22-2017,sympathy,1,resources
209662,9,Does the previous description provoke your anger at the individual?,Charlie is a well paid lawyer,2,2479,02-22-2017,anger,1,resources
209662,10,"To what extent would the offer of 10/90 % split, where you receive 10%, from this individual feel unfair to you?",Sarah can't afford to pay her medical bills,4,7417,02-22-2017,unfair,2,na
209662,11,Does the previous description provoke your sympathy toward the individual?,Sarah can't afford to pay her medical bills,4,1626,02-22-2017,sympathy,2,na
209662,12,Does the previous description provoke your anger at the individual?,Sarah can't afford to pay her medical bills,1,1566,02-22-2017,anger,2,na
209662,13,"To what extent would the offer of 10/90 % split, where you receive 10%, from this individual feel unfair to you?",Martha is a single mother,5,1554,02-22-2017,unfair,2,na
209662,14,Does the previous description provoke your sympathy toward the individual?,Martha is a single mother,4,2331,02-22-2017,sympathy,2,na
209662,15,Does the previous description provoke your anger at the individual?,Martha is a single mother,1,5107,02-22-2017,anger,2,na
209662,16,"To what extent would the offer of 10/90 % split, where you receive 10%, from this individual feel unfair to you?",Anna claims false expenses for her reportable work travel.,2,1901,02-22-2017,unfair,1,reputation
209662,17,Does the previous description provoke your sympathy toward the individual?,Anna claims false expenses for her reportable work travel.,1,1484,02-22-2017,sympathy,1,reputation
209662,18,Does the previous description provoke your anger at the individual?,Anna claims false expenses for her reportable work travel.,3,15620,02-22-2017,anger,1,reputation
209662,19,"To what extent would the offer of 10/90 % split, where you receive 10%, from this individual feel unfair to you?",Emily is a highly paid actress,1,2902,02-22-2017,unfair,1,resources
209662,20,Does the previous description provoke your sympathy toward the individual?,Emily is a highly paid actress,3,6566,02-22-2017,sympathy,1,resources
209662,21,Does the previous description provoke your anger at the individual?,Emily is a highly paid actress,1,1484,02-22-2017,anger,1,resources
209662,22,"To what extent would the offer of 10/90 % split, where you receive 10%, from this individual feel unfair to you?",Miriam just received a huge cash settlement,1,1351,02-22-2017,unfair,1,resources
209662,23,Does the previous description provoke your sympathy toward the individual?,Miriam just received a huge cash settlement,2,1120,02-22-2017,sympathy,1,resources
209662,24,Does the previous description provoke your anger at the individual?,Miriam just received a huge cash settlement,2,1353,02-22-2017,anger,1,resources
209847,1,"To what extent would the offer of 10/90 % split, where you receive 10%, from this individual feel unfair to you?",Steve cheated on his taxes and is now under investigation for tax fraud.,1,707,04-05-2017,unfair,1,reputation
209847,2,Does the previous description provoke your sympathy toward the individual?,Steve cheated on his taxes and is now under investigation for tax fraud.,1,629,04-05-2017,sympathy,1,reputation
209847,3,Does the previous description provoke your anger at the individual?,Steve cheated on his taxes and is now under investigation for tax fraud.,5,1314,04-05-2017,anger,1,reputation
209847,4,"To what extent would the offer of 10/90 % split, where you receive 10%, from this individual feel unfair to you?",Dennis is a retiree,3,27278,04-05-2017,unfair,2,na
209847,5,Does the previous description provoke your sympathy toward the individual?,Dennis is a retiree,1,307,04-05-2017,sympathy,2,na
209847,6,Does the previous description provoke your anger at the individual?,Dennis is a retiree,1,1032,04-05-2017,anger,2,na
209847,7,"To what extent would the offer of 10/90 % split, where you receive 10%, from this individual feel unfair to you?",Karen owns an international company,2,326,04-05-2017,unfair,1,resources
209847,8,Does the previous description provoke your sympathy toward the individual?,Karen owns an international company,1,265,04-05-2017,sympathy,1,resources
209847,9,Does the previous description provoke your anger at the individual?,Karen owns an international company,1,269,04-05-2017,anger,1,resources
209847,10,"To what extent would the offer of 10/90 % split, where you receive 10%, from this individual feel unfair to you?",Christina received a large inheritance from a distant relative,5,375,04-05-2017,unfair,1,resources
209847,11,Does the previous description provoke your sympathy toward the individual?,Christina received a large inheritance from a distant relative,1,415,04-05-2017,sympathy,1,resources
209847,12,Does the previous description provoke your anger at the individual?,Christina received a large inheritance from a distant relative,1,230,04-05-2017,anger,1,resources
209847,13,"To what extent would the offer of 10/90 % split, where you receive 10%, from this individual feel unfair to you?",Abby cannot afford to send her son to college.,5,2431,04-05-2017,unfair,2,na
209847,14,Does the previous description provoke your sympathy toward the individual?,Abby cannot afford to send her son to college.,3,973,04-05-2017,sympathy,2,na
209847,15,Does the previous description provoke your anger at the individual?,Abby cannot afford to send her son to college.,1,766,04-05-2017,anger,2,na
209847,16,"To what extent would the offer of 10/90 % split, where you receive 10%, from this individual feel unfair to you?",Fay was a victim of identity theft and is now thousands of dollars in debt.,5,491,04-05-2017,unfair,2,na
209847,17,Does the previous description provoke your sympathy toward the individual?,Fay was a victim of identity theft and is now thousands of dollars in debt.,5,3521,04-05-2017,sympathy,2,na
209847,18,Does the previous description provoke your anger at the individual?,Fay was a victim of identity theft and is now thousands of dollars in debt.,1,253,04-05-2017,anger,2,na
209847,19,"To what extent would the offer of 10/90 % split, where you receive 10%, from this individual feel unfair to you?",Miriam just received a huge cash settlement,3,11269,04-05-2017,unfair,1,resources
209847,20,Does the previous description provoke your sympathy toward the individual?,Miriam just received a huge cash settlement,1,244,04-05-2017,sympathy,1,resources
209847,21,Does the previous description provoke your anger at the individual?,Miriam just received a huge cash settlement,1,207,04-05-2017,anger,1,resources
209847,22,"To what extent would the offer of 10/90 % split, where you receive 10%, from this individual feel unfair to you?",Louise's car with her bag and credit cards was recently stolen.,5,368,04-05-2017,unfair,2,na
209847,23,Does the previous description provoke your sympathy toward the individual?,Louise's car with her bag and credit cards was recently stolen.,5,544,04-05-2017,sympathy,2,na
209847,24,Does the previous description provoke your anger at the individual?,Louise's car with her bag and credit cards was recently stolen.,1,261,04-05-2017,anger,2,na
210100,1,"To what extent would the offer of 10/90 % split, where you would recieve 10%, from this individual feel unfair to you?",Jack was mugged and had his wallet stolen.,5,1356,02-22-2017,unfair,2,na
210100,2,Does the previous description provoke your sympathy toward the individual?,Jack was mugged and had his wallet stolen.,5,719,02-22-2017,sympathy,2,na
210100,3,Does the previous description provoke your anger at the individual?,Jack was mugged and had his wallet stolen.,1,722,02-22-2017,anger,2,na
210100,4,"To what extent would the offer of 10/90 % split, where you would recieve 10%, from this individual feel unfair to you?",Dennis is a retiree,4,833,02-22-2017,unfair,2,na
210100,5,Does the previous description provoke your sympathy toward the individual?,Dennis is a retiree,2,963,02-22-2017,sympathy,2,na
210100,6,Does the previous description provoke your anger at the individual?,Dennis is a retiree,1,526,02-22-2017,anger,2,na
210100,7,"To what extent would the offer of 10/90 % split, where you would recieve 10%, from this individual feel unfair to you?",Trish's husband is a wealthy investment banker,2,600,02-22-2017,unfair,1,resources
210100,8,Does the previous description provoke your sympathy toward the individual?,Trish's husband is a wealthy investment banker,1,535,02-22-2017,sympathy,1,resources
210100,9,Does the previous description provoke your anger at the individual?,Trish's husband is a wealthy investment banker,1,370,02-22-2017,anger,1,resources
210100,10,"To what extent would the offer of 10/90 % split, where you would recieve 10%, from this individual feel unfair to you?",Abby cannot afford to send her son to college.,5,365,02-22-2017,unfair,2,na
210100,11,Does the previous description provoke your sympathy toward the individual?,Abby cannot afford to send her son to college.,5,535,02-22-2017,sympathy,2,na
210100,12,Does the previous description provoke your anger at the individual?,Abby cannot afford to send her son to college.,1,574,02-22-2017,anger,2,na
210100,13,"To what extent would the offer of 10/90 % split, where you would recieve 10%, from this individual feel unfair to you?",Jenny works two waitressing jobs to pay her bills.,5,598,02-22-2017,unfair,2,na
210100,14,Does the previous description provoke your sympathy toward the individual?,Jenny works two waitressing jobs to pay her bills.,4,817,02-22-2017,sympathy,2,na
210100,15,Does the previous description provoke your anger at the individual?,Jenny works two waitressing jobs to pay her bills.,1,579,02-22-2017,anger,2,na
210100,16,"To what extent would the offer of 10/90 % split, where you would recieve 10%, from this individual feel unfair to you?",Miriam just received a huge cash settlement,5,914,02-22-2017,unfair,1,resources
210100,17,Does the previous description provoke your sympathy toward the individual?,Miriam just received a huge cash settlement,2,536,02-22-2017,sympathy,1,resources
210100,18,Does the previous description provoke your anger at the individual?,Miriam just received a huge cash settlement,1,439,02-22-2017,anger,1,resources
210100,19,"To what extent would the offer of 10/90 % split, where you would recieve 10%, from this individual feel unfair to you?",Rose takes discarded food from grocery stores to feed her children.,5,387,02-22-2017,unfair,2,na
210100,20,Does the previous description provoke your sympathy toward the individual?,Rose takes discarded food from grocery stores to feed her children.,5,297,02-22-2017,sympathy,2,na
210100,21,Does the previous description provoke your anger at the individual?,Rose takes discarded food from grocery stores to feed her children.,1,317,02-22-2017,anger,2,na
210100,22,"To what extent would the offer of 10/90 % split, where you would recieve 10%, from this individual feel unfair to you?",Penny used her mother's social security number to open a credit card account.,3,23998,02-22-2017,unfair,1,reputation
210100,23,Does the previous description provoke your sympathy toward the individual?,Penny used her mother's social security number to open a credit card account.,1,858,02-22-2017,sympathy,1,reputation
210100,24,Does the previous description provoke your anger at the individual?,Penny used her mother's social security number to open a credit card account.,5,933,02-22-2017,anger,1,reputation
210290,1,To what extent would the offer of 10/90 % split from this individual feel unfair to you?,Steve cheated on his taxes and is now under investigation for tax fraud.,5,4756,06-02-2016,unfair,1,reputation
210290,2,To what extent does the description of the individual provoke your sympathy?,Steve cheated on his taxes and is now under investigation for tax fraud.,1,6561,06-02-2016,sympathy,1,reputation
210290,3,To what extent does the description of the individual provoke your anger?,Steve cheated on his taxes and is now under investigation for tax fraud.,4,2804,06-02-2016,anger,1,reputation
210290,4,To what extent would the offer of 10/90 % split from this individual feel unfair to you?,Dan is a veteran having trouble finding employment.,4,1540,06-02-2016,unfair,2,na
210290,5,To what extent does the description of the individual provoke your sympathy?,Dan is a veteran having trouble finding employment.,5,678,06-02-2016,sympathy,2,na
210290,6,To what extent does the description of the individual provoke your anger?,Dan is a veteran having trouble finding employment.,1,1870,06-02-2016,anger,2,na
210290,7,To what extent would the offer of 10/90 % split from this individual feel unfair to you?,Jeff stole his elderly father's prescription medications.,5,1336,06-02-2016,unfair,1,reputation
210290,8,To what extent does the description of the individual provoke your sympathy?,Jeff stole his elderly father's prescription medications.,1,2182,06-02-2016,sympathy,1,reputation
210290,9,To what extent does the description of the individual provoke your anger?,Jeff stole his elderly father's prescription medications.,4,1225,06-02-2016,anger,1,reputation
210290,10,To what extent would the offer of 10/90 % split from this individual feel unfair to you?,Charlie is a well paid lawyer,4,6862,06-02-2016,unfair,1,resources
210290,11,To what extent does the description of the individual provoke your sympathy?,Charlie is a well paid lawyer,2,3652,06-02-2016,sympathy,1,resources
210290,12,To what extent does the description of the individual provoke your anger?,Charlie is a well paid lawyer,2,4640,06-02-2016,anger,1,resources
210290,13,To what extent would the offer of 10/90 % split from this individual feel unfair to you?,Mike just lost his job,1,2097,06-02-2016,unfair,2,na
210290,14,To what extent does the description of the individual provoke your sympathy?,Mike just lost his job,5,1354,06-02-2016,sympathy,2,na
210290,15,To what extent does the description of the individual provoke your anger?,Mike just lost his job,1,2288,06-02-2016,anger,2,na
210290,16,To what extent would the offer of 10/90 % split from this individual feel unfair to you?,Emily is a highly paid actress,5,2302,06-02-2016,unfair,1,resources
210290,17,To what extent does the description of the individual provoke your sympathy?,Emily is a highly paid actress,1,2550,06-02-2016,sympathy,1,resources
210290,18,To what extent does the description of the individual provoke your anger?,Emily is a highly paid actress,1,5170,06-02-2016,anger,1,resources
210290,19,To what extent would the offer of 10/90 % split from this individual feel unfair to you?,Rose takes discarded food from grocery stores to feed her children.,1,3124,06-02-2016,unfair,2,na
210290,20,To what extent does the description of the individual provoke your sympathy?,Rose takes discarded food from grocery stores to feed her children.,5,2203,06-02-2016,sympathy,2,na
210290,21,To what extent does the description of the individual provoke your anger?,Rose takes discarded food from grocery stores to feed her children.,1,1168,06-02-2016,anger,2,na
210290,22,To what extent would the offer of 10/90 % split from this individual feel unfair to you?,Kay steals her coworkers' tips to buy alcohol.,5,2808,06-02-2016,unfair,1,reputation
210290,23,To what extent does the description of the individual provoke your sympathy?,Kay steals her coworkers' tips to buy alcohol.,1,965,06-02-2016,sympathy,1,reputation
210290,24,To what extent does the description of the individual provoke your anger?,Kay steals her coworkers' tips to buy alcohol.,4,684,06-02-2016,anger,1,reputation
210374,1,"To what extent would the offer of 10/90 % split, where you receive 10%, from this individual feel unfair to you?",Eric stole money from his mother's wallet.,1,1099,03-06-2017,unfair,1,reputation
210374,2,Does the previous description provoke your sympathy toward the individual?,Eric stole money from his mother's wallet.,1,952,03-06-2017,sympathy,1,reputation
210374,3,Does the previous description provoke your anger at the individual?,Eric stole money from his mother's wallet.,5,317,03-06-2017,anger,1,reputation
210374,4,"To what extent would the offer of 10/90 % split, where you receive 10%, from this individual feel unfair to you?",Bill lost his life savings when his small business failed,5,1279,03-06-2017,unfair,2,na
210374,5,Does the previous description provoke your sympathy toward the individual?,Bill lost his life savings when his small business failed,5,741,03-06-2017,sympathy,2,na
210374,6,Does the previous description provoke your anger at the individual?,Bill lost his life savings when his small business failed,1,1254,03-06-2017,anger,2,na
210374,7,"To what extent would the offer of 10/90 % split, where you receive 10%, from this individual feel unfair to you?",Sarah can't afford to pay her medical bills,5,5458,03-06-2017,unfair,2,na
210374,8,Does the previous description provoke your sympathy toward the individual?,Sarah can't afford to pay her medical bills,5,241,03-06-2017,sympathy,2,na
210374,9,Does the previous description provoke your anger at the individual?,Sarah can't afford to pay her medical bills,1,889,03-06-2017,anger,2,na
210374,10,"To what extent would the offer of 10/90 % split, where you receive 10%, from this individual feel unfair to you?",Jean is going to be evicted because she is behind on her rent,4,713,03-06-2017,unfair,2,na
210374,11,Does the previous description provoke your sympathy toward the individual?,Jean is going to be evicted because she is behind on her rent,3,19262,03-06-2017,sympathy,2,na
210374,12,Does the previous description provoke your anger at the individual?,Jean is going to be evicted because she is behind on her rent,3,5625,03-06-2017,anger,2,na
210374,13,"To what extent would the offer of 10/90 % split, where you receive 10%, from this individual feel unfair to you?",Eva secretly gambles with her husband's savings.,1,339,03-06-2017,unfair,1,reputation
210374,14,Does the previous description provoke your sympathy toward the individual?,Eva secretly gambles with her husband's savings.,1,562,03-06-2017,sympathy,1,reputation
210374,15,Does the previous description provoke your anger at the individual?,Eva secretly gambles with her husband's savings.,5,264,03-06-2017,anger,1,reputation
210374,16,"To what extent would the offer of 10/90 % split, where you receive 10%, from this individual feel unfair to you?",Anna claims false expenses for her reportable work travel.,1,300,03-06-2017,unfair,1,reputation
210374,17,Does the previous description provoke your sympathy toward the individual?,Anna claims false expenses for her reportable work travel.,1,276,03-06-2017,sympathy,1,reputation
210374,18,Does the previous description provoke your anger at the individual?,Anna claims false expenses for her reportable work travel.,4,254,03-06-2017,anger,1,reputation
210374,19,"To what extent would the offer of 10/90 % split, where you receive 10%, from this individual feel unfair to you?",Jenny works two waitressing jobs to pay her bills.,5,818,03-06-2017,unfair,2,na
210374,20,Does the previous description provoke your sympathy toward the individual?,Jenny works two waitressing jobs to pay her bills.,5,511,03-06-2017,sympathy,2,na
210374,21,Does the previous description provoke your anger at the individual?,Jenny works two waitressing jobs to pay her bills.,1,219,03-06-2017,anger,2,na
210374,22,"To what extent would the offer of 10/90 % split, where you receive 10%, from this individual feel unfair to you?",Maria is raising money to buy gifts for children in need.,5,1299,03-06-2017,unfair,2,na
210374,23,Does the previous description provoke your sympathy toward the individual?,Maria is raising money to buy gifts for children in need.,3,7525,03-06-2017,sympathy,2,na
210374,24,Does the previous description provoke your anger at the individual?,Maria is raising money to buy gifts for children in need.,3,3264,03-06-2017,anger,2,na
210626,1,"To what extent would the offer of 10/90 % split, where you would recieve 10%, from this individual feel unfair to you?",Nick just found $50 on the street,5,4244,03-21-2017,unfair,1,resources
210626,2,Does the previous description provoke your sympathy toward the individual?,Nick just found $50 on the street,3,242,03-21-2017,sympathy,1,resources
210626,3,Does the previous description provoke your anger at the individual?,Nick just found $50 on the street,1,1147,03-21-2017,anger,1,resources
210626,4,"To what extent would the offer of 10/90 % split, where you would recieve 10%, from this individual feel unfair to you?",Dennis is a retiree,2,947,03-21-2017,unfair,2,na
210626,5,Does the previous description provoke your sympathy toward the individual?,Dennis is a retiree,2,968,03-21-2017,sympathy,2,na
210626,6,Does the previous description provoke your anger at the individual?,Dennis is a retiree,1,1297,03-21-2017,anger,2,na
210626,7,"To what extent would the offer of 10/90 % split, where you would recieve 10%, from this individual feel unfair to you?",Mike just lost his job,5,1100,03-21-2017,unfair,2,na
210626,8,Does the previous description provoke your sympathy toward the individual?,Mike just lost his job,3,16278,03-21-2017,sympathy,2,na
210626,9,Does the previous description provoke your anger at the individual?,Mike just lost his job,3,5739,03-21-2017,anger,2,na
210626,10,"To what extent would the offer of 10/90 % split, where you would recieve 10%, from this individual feel unfair to you?",Devin underreports his company's earnings and pockets the profits.,1,2147,03-21-2017,unfair,1,reputation
210626,11,Does the previous description provoke your sympathy toward the individual?,Devin underreports his company's earnings and pockets the profits.,2,3688,03-21-2017,sympathy,1,reputation
210626,12,Does the previous description provoke your anger at the individual?,Devin underreports his company's earnings and pockets the profits.,5,988,03-21-2017,anger,1,reputation
210626,13,"To what extent would the offer of 10/90 % split, where you would recieve 10%, from this individual feel unfair to you?",Miriam just received a huge cash settlement,4,1138,03-21-2017,unfair,1,resources
210626,14,Does the previous description provoke your sympathy toward the individual?,Miriam just received a huge cash settlement,4,1181,03-21-2017,sympathy,1,resources
210626,15,Does the previous description provoke your anger at the individual?,Miriam just received a huge cash settlement,2,2730,03-21-2017,anger,1,resources
210626,16,"To what extent would the offer of 10/90 % split, where you would recieve 10%, from this individual feel unfair to you?",Rose takes discarded food from grocery stores to feed her children.,3,7374,03-21-2017,unfair,2,na
210626,17,Does the previous description provoke your sympathy toward the individual?,Rose takes discarded food from grocery stores to feed her children.,5,1115,03-21-2017,sympathy,2,na
210626,18,Does the previous description provoke your anger at the individual?,Rose takes discarded food from grocery stores to feed her children.,4,3333,03-21-2017,anger,2,na
210626,19,"To what extent would the offer of 10/90 % split, where you would recieve 10%, from this individual feel unfair to you?",Penny used her mother's social security number to open a credit card account.,1,1002,03-21-2017,unfair,1,reputation
210626,20,Does the previous description provoke your sympathy toward the individual?,Penny used her mother's social security number to open a credit card account.,2,1239,03-21-2017,sympathy,1,reputation
210626,21,Does the previous description provoke your anger at the individual?,Penny used her mother's social security number to open a credit card account.,5,940,03-21-2017,anger,1,reputation
210626,22,"To what extent would the offer of 10/90 % split, where you would recieve 10%, from this individual feel unfair to you?",Marny just found out that her husband has incurred a large credit card debt.,1,1010,03-21-2017,unfair,2,na
210626,23,Does the previous description provoke your sympathy toward the individual?,Marny just found out that her husband has incurred a large credit card debt.,5,977,03-21-2017,sympathy,2,na
210626,24,Does the previous description provoke your anger at the individual?,Marny just found out that her husband has incurred a large credit card debt.,5,845,03-21-2017,anger,2,na
210685,1,"To what extent would the offer of 10/90 % split, where you receive 10%, from this individual feel unfair to you?",Ricky is homeless,3,35671,02-10-2017,unfair,2,na
210685,2,Does the previous description provoke your sympathy toward the individual?,Ricky is homeless,3,22243,02-10-2017,sympathy,2,na
210685,3,Does the previous description provoke your anger at the individual?,Ricky is homeless,1,896,02-10-2017,anger,2,na
210685,4,"To what extent would the offer of 10/90 % split, where you receive 10%, from this individual feel unfair to you?",Steve cheated on his taxes and is now under investigation for tax fraud.,1,1463,02-10-2017,unfair,1,reputation
210685,5,Does the previous description provoke your sympathy toward the individual?,Steve cheated on his taxes and is now under investigation for tax fraud.,1,2696,02-10-2017,sympathy,1,reputation
210685,6,Does the previous description provoke your anger at the individual?,Steve cheated on his taxes and is now under investigation for tax fraud.,1,1124,02-10-2017,anger,1,reputation
210685,7,"To what extent would the offer of 10/90 % split, where you receive 10%, from this individual feel unfair to you?",Jacob is saving for his son's operation,1,1250,02-10-2017,unfair,2,na
210685,8,Does the previous description provoke your sympathy toward the individual?,Jacob is saving for his son's operation,5,733,02-10-2017,sympathy,2,na
210685,9,Does the previous description provoke your anger at the individual?,Jacob is saving for his son's operation,1,799,02-10-2017,anger,2,na
210685,10,"To what extent would the offer of 10/90 % split, where you receive 10%, from this individual feel unfair to you?",Tim could not afford his mortgage and his home was foreclosed.,5,1293,02-10-2017,unfair,2,na
210685,11,Does the previous description provoke your sympathy toward the individual?,Tim could not afford his mortgage and his home was foreclosed.,1,873,02-10-2017,sympathy,2,na
210685,12,Does the previous description provoke your anger at the individual?,Tim could not afford his mortgage and his home was foreclosed.,1,875,02-10-2017,anger,2,na
210685,13,"To what extent would the offer of 10/90 % split, where you receive 10%, from this individual feel unfair to you?",Trish's husband is a wealthy investment banker,3,11438,02-10-2017,unfair,1,resources
210685,14,Does the previous description provoke your sympathy toward the individual?,Trish's husband is a wealthy investment banker,1,725,02-10-2017,sympathy,1,resources
210685,15,Does the previous description provoke your anger at the individual?,Trish's husband is a wealthy investment banker,1,1016,02-10-2017,anger,1,resources
210685,16,"To what extent would the offer of 10/90 % split, where you receive 10%, from this individual feel unfair to you?",Alice regularly fires employees to avoid promoting them.,1,1174,02-10-2017,unfair,1,reputation
210685,17,Does the previous description provoke your sympathy toward the individual?,Alice regularly fires employees to avoid promoting them.,1,632,02-10-2017,sympathy,1,reputation
210685,18,Does the previous description provoke your anger at the individual?,Alice regularly fires employees to avoid promoting them.,1,3196,02-10-2017,anger,1,reputation
210685,19,"To what extent would the offer of 10/90 % split, where you receive 10%, from this individual feel unfair to you?",Penny used her mother's social security number to open a credit card account.,3,11285,02-10-2017,unfair,1,reputation
210685,20,Does the previous description provoke your sympathy toward the individual?,Penny used her mother's social security number to open a credit card account.,1,1055,02-10-2017,sympathy,1,reputation
210685,21,Does the previous description provoke your anger at the individual?,Penny used her mother's social security number to open a credit card account.,1,573,02-10-2017,anger,1,reputation
210685,22,"To what extent would the offer of 10/90 % split, where you receive 10%, from this individual feel unfair to you?",Marny just found out that her husband has incurred a large credit card debt.,3,16474,02-10-2017,unfair,2,na
210685,23,Does the previous description provoke your sympathy toward the individual?,Marny just found out that her husband has incurred a large credit card debt.,3,6317,02-10-2017,sympathy,2,na
210685,24,Does the previous description provoke your anger at the individual?,Marny just found out that her husband has incurred a large credit card debt.,1,673,02-10-2017,anger,2,na
210701,1,To what extent would the offer of 10/90 % split from this individual feel unfair to you?,Bill lost his life savings when his small business failed,1,5083,10-06-2016,unfair,2,na
210701,2,To what extent does the description of the individual provoke your sympathy?,Bill lost his life savings when his small business failed,5,1834,10-06-2016,sympathy,2,na
210701,3,To what extent does the description of the individual provoke your anger?,Bill lost his life savings when his small business failed,1,1847,10-06-2016,anger,2,na
210701,4,To what extent would the offer of 10/90 % split from this individual feel unfair to you?,Jack was mugged and had his wallet stolen.,5,2243,10-06-2016,unfair,2,na
210701,5,To what extent does the description of the individual provoke your sympathy?,Jack was mugged and had his wallet stolen.,5,3097,10-06-2016,sympathy,2,na
210701,6,To what extent does the description of the individual provoke your anger?,Jack was mugged and had his wallet stolen.,3,8381,10-06-2016,anger,2,na
210701,7,To what extent would the offer of 10/90 % split from this individual feel unfair to you?,Jacob is saving for his son's operation,5,3332,10-06-2016,unfair,2,na
210701,8,To what extent does the description of the individual provoke your sympathy?,Jacob is saving for his son's operation,4,1326,10-06-2016,sympathy,2,na
210701,9,To what extent does the description of the individual provoke your anger?,Jacob is saving for his son's operation,1,980,10-06-2016,anger,2,na
210701,10,To what extent would the offer of 10/90 % split from this individual feel unfair to you?,Larry employs illegal immigrants and pays them less than minimum wage.,5,1762,10-06-2016,unfair,1,reputation
210701,11,To what extent does the description of the individual provoke your sympathy?,Larry employs illegal immigrants and pays them less than minimum wage.,1,5804,10-06-2016,sympathy,1,reputation
210701,12,To what extent does the description of the individual provoke your anger?,Larry employs illegal immigrants and pays them less than minimum wage.,4,2908,10-06-2016,anger,1,reputation
210701,13,To what extent would the offer of 10/90 % split from this individual feel unfair to you?,Alyssa just won the lottery,5,1384,10-06-2016,unfair,1,resources
210701,14,To what extent does the description of the individual provoke your sympathy?,Alyssa just won the lottery,1,1106,10-06-2016,sympathy,1,resources
210701,15,To what extent does the description of the individual provoke your anger?,Alyssa just won the lottery,1,2297,10-06-2016,anger,1,resources
210701,16,To what extent would the offer of 10/90 % split from this individual feel unfair to you?,Abby cannot afford to send her son to college.,2,4304,10-06-2016,unfair,2,na
210701,17,To what extent does the description of the individual provoke your sympathy?,Abby cannot afford to send her son to college.,3,889,10-06-2016,sympathy,2,na
210701,18,To what extent does the description of the individual provoke your anger?,Abby cannot afford to send her son to college.,1,970,10-06-2016,anger,2,na
210701,19,To what extent would the offer of 10/90 % split from this individual feel unfair to you?,Fay was a victim of identity theft and is now thousands of dollars in debt.,5,1153,10-06-2016,unfair,2,na
210701,20,To what extent does the description of the individual provoke your sympathy?,Fay was a victim of identity theft and is now thousands of dollars in debt.,5,531,10-06-2016,sympathy,2,na
210701,21,To what extent does the description of the individual provoke your anger?,Fay was a victim of identity theft and is now thousands of dollars in debt.,1,494,10-06-2016,anger,2,na
211038,1,"To what extent would the offer of 10/90 % split, where you receive 10%, from this individual feel unfair to you?",Ricky is homeless,2,5959,01-31-2017,unfair,2,na
211038,2,Does the previous description provoke your sympathy toward the individual?,Ricky is homeless,5,1313,01-31-2017,sympathy,2,na
211038,3,Does the previous description provoke your anger at the individual?,Ricky is homeless,1,1436,01-31-2017,anger,2,na
211038,4,"To what extent would the offer of 10/90 % split, where you receive 10%, from this individual feel unfair to you?",Kyle declared bankruptcy after he was laid off.,3,19892,01-31-2017,unfair,2,na
211038,5,Does the previous description provoke your sympathy toward the individual?,Kyle declared bankruptcy after he was laid off.,4,5274,01-31-2017,sympathy,2,na
211038,6,Does the previous description provoke your anger at the individual?,Kyle declared bankruptcy after he was laid off.,2,6138,01-31-2017,anger,2,na
211038,7,"To what extent would the offer of 10/90 % split, where you receive 10%, from this individual feel unfair to you?",Cecil takes valuables from his friends' homes when asked to house-sit.,1,1008,01-31-2017,unfair,1,reputation
211038,8,Does the previous description provoke your sympathy toward the individual?,Cecil takes valuables from his friends' homes when asked to house-sit.,1,1010,01-31-2017,sympathy,1,reputation
211038,9,Does the previous description provoke your anger at the individual?,Cecil takes valuables from his friends' homes when asked to house-sit.,5,1093,01-31-2017,anger,1,reputation
211038,10,"To what extent would the offer of 10/90 % split, where you receive 10%, from this individual feel unfair to you?",Ted bullies his employees to put in extra hours at work.,1,1354,01-31-2017,unfair,1,reputation
211038,11,Does the previous description provoke your sympathy toward the individual?,Ted bullies his employees to put in extra hours at work.,1,954,01-31-2017,sympathy,1,reputation
211038,12,Does the previous description provoke your anger at the individual?,Ted bullies his employees to put in extra hours at work.,5,1283,01-31-2017,anger,1,reputation
211038,13,"To what extent would the offer of 10/90 % split, where you receive 10%, from this individual feel unfair to you?",Christina received a large inheritance from a distant relative,2,2099,01-31-2017,unfair,1,resources
211038,14,Does the previous description provoke your sympathy toward the individual?,Christina received a large inheritance from a distant relative,1,816,01-31-2017,sympathy,1,resources
211038,15,Does the previous description provoke your anger at the individual?,Christina received a large inheritance from a distant relative,1,728,01-31-2017,anger,1,resources
211038,16,"To what extent would the offer of 10/90 % split, where you receive 10%, from this individual feel unfair to you?",Abby cannot afford to send her son to college.,4,1010,01-31-2017,unfair,2,na
211038,17,Does the previous description provoke your sympathy toward the individual?,Abby cannot afford to send her son to college.,4,1312,01-31-2017,sympathy,2,na
211038,18,Does the previous description provoke your anger at the individual?,Abby cannot afford to send her son to college.,1,1137,01-31-2017,anger,2,na
211038,19,"To what extent would the offer of 10/90 % split, where you receive 10%, from this individual feel unfair to you?",Marny just found out that her husband has incurred a large credit card debt.,3,12913,01-31-2017,unfair,2,na
211038,20,Does the previous description provoke your sympathy toward the individual?,Marny just found out that her husband has incurred a large credit card debt.,5,1596,01-31-2017,sympathy,2,na
211038,21,Does the previous description provoke your anger at the individual?,Marny just found out that her husband has incurred a large credit card debt.,1,744,01-31-2017,anger,2,na
211669,1,To what extent would the offer of 10/90 % split from this individual feel unfair to you?,Ricky is homeless,1,16400,01-24-2017,unfair,2,na
211669,2,Does the previous description provoke your sympathy toward the individual?,Ricky is homeless,1,1278,01-24-2017,sympathy,2,na
211669,3,Does the previous description provoke your anger at the individual?,Ricky is homeless,1,1734,01-24-2017,anger,2,na
211669,4,To what extent would the offer of 10/90 % split from this individual feel unfair to you?,Steve cheated on his taxes and is now under investigation for tax fraud.,1,1075,01-24-2017,unfair,1,reputation
211669,5,Does the previous description provoke your sympathy toward the individual?,Steve cheated on his taxes and is now under investigation for tax fraud.,1,2235,01-24-2017,sympathy,1,reputation
211669,6,Does the previous description provoke your anger at the individual?,Steve cheated on his taxes and is now under investigation for tax fraud.,1,1234,01-24-2017,anger,1,reputation
211669,7,To what extent would the offer of 10/90 % split from this individual feel unfair to you?,Jack was mugged and had his wallet stolen.,1,2788,01-24-2017,unfair,2,na
211669,8,Does the previous description provoke your sympathy toward the individual?,Jack was mugged and had his wallet stolen.,1,854,01-24-2017,sympathy,2,na
211669,9,Does the previous description provoke your anger at the individual?,Jack was mugged and had his wallet stolen.,1,800,01-24-2017,anger,2,na
211669,10,To what extent would the offer of 10/90 % split from this individual feel unfair to you?,Ted bullies his employees to put in extra hours at work.,1,521,01-24-2017,unfair,1,reputation
211669,11,Does the previous description provoke your sympathy toward the individual?,Ted bullies his employees to put in extra hours at work.,1,947,01-24-2017,sympathy,1,reputation
211669,12,Does the previous description provoke your anger at the individual?,Ted bullies his employees to put in extra hours at work.,1,556,01-24-2017,anger,1,reputation
211669,13,To what extent would the offer of 10/90 % split from this individual feel unfair to you?,Emily is a highly paid actress,1,779,01-24-2017,unfair,1,resources
211669,14,Does the previous description provoke your sympathy toward the individual?,Emily is a highly paid actress,1,1043,01-24-2017,sympathy,1,resources
211669,15,Does the previous description provoke your anger at the individual?,Emily is a highly paid actress,1,504,01-24-2017,anger,1,resources
211669,16,To what extent would the offer of 10/90 % split from this individual feel unfair to you?,Miriam just received a huge cash settlement,1,553,01-24-2017,unfair,1,resources
211669,17,Does the previous description provoke your sympathy toward the individual?,Miriam just received a huge cash settlement,1,470,01-24-2017,sympathy,1,resources
211669,18,Does the previous description provoke your anger at the individual?,Miriam just received a huge cash settlement,1,902,01-24-2017,anger,1,resources
211669,19,To what extent would the offer of 10/90 % split from this individual feel unfair to you?,Penny used her mother's social security number to open a credit card account.,1,442,01-24-2017,unfair,1,reputation
211669,20,Does the previous description provoke your sympathy toward the individual?,Penny used her mother's social security number to open a credit card account.,1,535,01-24-2017,sympathy,1,reputation
211669,21,Does the previous description provoke your anger at the individual?,Penny used her mother's social security number to open a credit card account.,1,516,01-24-2017,anger,1,reputation
211669,22,To what extent would the offer of 10/90 % split from this individual feel unfair to you?,Maria is raising money to buy gifts for children in need.,1,422,01-24-2017,unfair,2,na
211669,23,Does the previous description provoke your sympathy toward the individual?,Maria is raising money to buy gifts for children in need.,1,439,01-24-2017,sympathy,2,na
211669,24,Does the previous description provoke your anger at the individual?,Maria is raising money to buy gifts for children in need.,1,504,01-24-2017,anger,2,na
212019,1,To what extent would the offer of 10/90 % split from this individual feel unfair to you?,Ted bullies his employees to put in extra hours at work.,1,5729,05-17-2016,unfair,1,reputation
212019,2,To what extent does the description of the individual provoke your sympathy?,Ted bullies his employees to put in extra hours at work.,1,587,05-17-2016,sympathy,1,reputation
212019,3,To what extent does the description of the individual provoke your anger?,Ted bullies his employees to put in extra hours at work.,3,4422,05-17-2016,anger,1,reputation
212019,4,To what extent would the offer of 10/90 % split from this individual feel unfair to you?,Jean is going to be evicted because she is behind on her rent,4,885,05-17-2016,unfair,2,na
212019,5,To what extent does the description of the individual provoke your sympathy?,Jean is going to be evicted because she is behind on her rent,5,701,05-17-2016,sympathy,2,na
212019,6,To what extent does the description of the individual provoke your anger?,Jean is going to be evicted because she is behind on her rent,1,355,05-17-2016,anger,2,na
212019,7,To what extent would the offer of 10/90 % split from this individual feel unfair to you?,Alyssa just won the lottery,1,465,05-17-2016,unfair,1,resources
212019,8,To what extent does the description of the individual provoke your sympathy?,Alyssa just won the lottery,1,371,05-17-2016,sympathy,1,resources
212019,9,To what extent does the description of the individual provoke your anger?,Alyssa just won the lottery,1,510,05-17-2016,anger,1,resources
212019,10,To what extent would the offer of 10/90 % split from this individual feel unfair to you?,Abby cannot afford to send her son to college.,5,422,05-17-2016,unfair,2,na
212019,11,To what extent does the description of the individual provoke your sympathy?,Abby cannot afford to send her son to college.,2,459,05-17-2016,sympathy,2,na
212019,12,To what extent does the description of the individual provoke your anger?,Abby cannot afford to send her son to college.,2,478,05-17-2016,anger,2,na
212019,13,To what extent would the offer of 10/90 % split from this individual feel unfair to you?,Kay steals her coworkers' tips to buy alcohol.,4,999,05-17-2016,unfair,1,reputation
212019,14,To what extent does the description of the individual provoke your sympathy?,Kay steals her coworkers' tips to buy alcohol.,1,499,05-17-2016,sympathy,1,reputation
212019,15,To what extent does the description of the individual provoke your anger?,Kay steals her coworkers' tips to buy alcohol.,3,385,05-17-2016,anger,1,reputation
212019,16,To what extent would the offer of 10/90 % split from this individual feel unfair to you?,Penny used her mother's social security number to open a credit card account.,4,1997,05-17-2016,unfair,1,reputation
212019,17,To what extent does the description of the individual provoke your sympathy?,Penny used her mother's social security number to open a credit card account.,1,382,05-17-2016,sympathy,1,reputation
212019,18,To what extent does the description of the individual provoke your anger?,Penny used her mother's social security number to open a credit card account.,4,514,05-17-2016,anger,1,reputation
212019,19,To what extent would the offer of 10/90 % split from this individual feel unfair to you?,Marny just found out that her husband has incurred a large credit card debt.,3,5315,05-17-2016,unfair,2,na
212019,20,To what extent does the description of the individual provoke your sympathy?,Marny just found out that her husband has incurred a large credit card debt.,2,677,05-17-2016,sympathy,2,na
212019,21,To what extent does the description of the individual provoke your anger?,Marny just found out that her husband has incurred a large credit card debt.,2,380,05-17-2016,anger,2,na
212179,1,"To what extent would the offer of 10/90 % split, where you receive 10%, from this individual feel unfair to you?",Jeff stole his elderly father's prescription medications.,4,1423,04-05-2017,unfair,1,reputation
212179,2,Does the previous description provoke your sympathy toward the individual?,Jeff stole his elderly father's prescription medications.,1,1042,04-05-2017,sympathy,1,reputation
212179,3,Does the previous description provoke your anger at the individual?,Jeff stole his elderly father's prescription medications.,5,937,04-05-2017,anger,1,reputation
