id,Trial_Number,Fairness_score,PlayerProposedAmount,OpponentProposedAmount,Gender,StimulusCentre,StakeImg,Stimuli_OnsetTime,Stimuli_RTTime,Stimuli_RT,Stimuli_RESP,AcceptOffer
115105,1,4,4,16,m,Eric.jpg,pieFS4.bmp,423599,427751,4152,p,0
115105,2,5,1,9,m,John.jpg,pieFS5.bmp,435421,438869,3448,p,0
115105,3,2,3,4,m,Michael.jpg,pieFS2.bmp,446523,450662,4139,q,1
115105,4,3,5,11,m,Stephan.jpg,pieFS3.bmp,458312,463336,5024,q,1
115105,5,3,5,11,f,Liz.jpg,pieFS3.bmp,471003,473856,2853,p,0
115105,6,1,9,9,m,Frank.jpg,pieFS1.bmp,481504,484599,3095,q,1
115105,7,5,1,9,m,James.jpg,pieFS5.bmp,492238,495412,3174,p,0
115105,8,3,6,14,m,David.jpg,pieFS3.bmp,503040,505785,2745,q,1
115105,9,3,3,7,m,Kevin.jpg,pieFS3.bmp,513440,516078,2638,q,1
115105,10,5,2,18,m,Tom.jpg,pieFS5.bmp,523724,525659,1935,p,0
115105,11,3,2,4,f,Mary.jpg,pieFS3.bmp,533305,536365,3060,q,1
115105,12,4,4,16,f,Silvia.jpg,pieFS4.bmp,544006,546190,2184,p,0
115105,13,2,5,7,m,Paul.jpg,pieFS2.bmp,553838,555972,2134,q,1
115105,14,4,1,4,f,Michelle.jpg,pieFS4.bmp,563637,567282,3645,p,0
115105,15,4,3,12,f,Anita.jpg,pieFS4.bmp,574923,577445,2522,p,0
115105,16,5,2,18,m,Richard.jpg,pieFS5.bmp,585089,587607,2518,p,0
115105,17,5,2,18,f,Jessica.jpg,pieFS5.bmp,595256,597151,1895,p,0
115105,18,5,2,18,f,Anna.jpg,pieFS5.bmp,604787,606638,1851,p,0
115105,19,2,5,7,f,Christina.jpg,pieFS2.bmp,614284,616439,2155,q,1
115105,20,4,3,12,m,Robert.jpg,pieFS4.bmp,624083,627880,3797,p,0
115105,21,5,1,9,f,Sandra.jpg,pieFS5.bmp,635536,636936,1400,p,0
115105,22,1,8,8,f,Susan.jpg,pieFS1.bmp,644582,647193,2611,q,1
115105,23,4,1,4,m,Chris.jpg,pieFS4.bmp,654866,657823,2957,p,0
115105,24,4,2,8,f,Jane.jpg,pieFS4.bmp,665467,667686,2219,p,0
115105,25,3,4,9,f,Laura.jpg,pieFS3.bmp,675349,677224,1875,q,1
115105,26,3,1,2,f,Becky.jpg,pieFS3.bmp,684880,687349,2469,q,1
115251,1,3,4,9,f,Anita.jpg,pieFS3.bmp,352982,360638,7656,q,1
115251,2,3,1,2,f,Christina.jpg,pieFS3.bmp,368348,376238,7890,p,0
115251,3,3,3,7,m,Frank.jpg,pieFS3.bmp,383931,387038,3107,q,1
115251,4,3,5,11,f,Jessica.jpg,pieFS3.bmp,394752,397518,2766,q,1
115251,5,2,5,7,f,Becky.jpg,pieFS2.bmp,405224,408098,2874,q,1
115251,6,4,1,4,f,Liz.jpg,pieFS4.bmp,415812,418598,2786,q,1
115251,7,5,2,18,f,Laura.jpg,pieFS5.bmp,426316,428778,2462,q,1
115251,8,3,6,14,m,Michael.jpg,pieFS3.bmp,436488,443698,7210,p,0
115251,9,2,5,7,m,Paul.jpg,pieFS2.bmp,451405,453278,1873,q,1
115251,10,3,2,4,f,Mary.jpg,pieFS3.bmp,460994,463278,2284,q,1
115251,11,1,8,8,f,Susan.jpg,pieFS1.bmp,470983,472618,1635,q,1
115251,12,5,2,18,f,Silvia.jpg,pieFS5.bmp,480322,483638,3316,p,0
115251,13,5,1,9,m,James.jpg,pieFS5.bmp,491343,492738,1395,q,1
115251,14,3,5,11,m,Kevin.jpg,pieFS3.bmp,500450,502618,2168,q,1
115251,15,2,3,4,m,David.jpg,pieFS2.bmp,510339,512098,1759,q,1
115251,16,5,2,18,m,Tom.jpg,pieFS5.bmp,519811,522918,3107,p,0
115251,17,1,9,9,m,Richard.jpg,pieFS1.bmp,530632,531878,1246,q,1
115251,18,4,3,12,m,John.jpg,pieFS4.bmp,539589,543338,3749,p,0
115251,19,5,2,18,m,Chris.jpg,pieFS5.bmp,551043,553038,1995,p,0
115251,20,4,1,4,m,Robert.jpg,pieFS4.bmp,560749,562918,2169,p,0
115251,21,4,4,16,f,Anna.jpg,pieFS4.bmp,570637,573298,2661,q,1
115251,22,5,1,9,m,Stephan.jpg,pieFS5.bmp,581009,582918,1909,p,0
115251,23,4,3,12,f,Sandra.jpg,pieFS4.bmp,590615,593678,3063,p,0
115251,24,4,4,16,m,Eric.jpg,pieFS4.bmp,601386,603658,2272,q,1
115251,25,5,1,9,f,Michelle.jpg,pieFS5.bmp,611375,613918,2543,p,0
115251,26,4,2,8,f,Jane.jpg,pieFS4.bmp,621630,625438,3808,q,1
115300,1,5,2,18,f,Anna.jpg,pieFS5.bmp,924963,1357106,432143,p,0
115300,2,4,3,12,m,Robert.jpg,pieFS4.bmp,1364752,1373171,8419,p,0
115300,3,3,2,4,f,Anita.jpg,pieFS3.bmp,1380817,1387931,7114,p,0
115300,4,3,5,11,m,James.jpg,pieFS3.bmp,1395567,1399931,4364,p,0
115300,5,2,3,4,m,Richard.jpg,pieFS2.bmp,1407570,1411931,4361,q,1
115300,6,3,6,14,m,Eric.jpg,pieFS3.bmp,1419573,1423091,3518,q,1
115300,7,3,4,9,f,Jessica.jpg,pieFS3.bmp,1430728,1437591,6863,q,1
115300,8,4,3,12,f,Susan.jpg,pieFS4.bmp,1445228,1448351,3123,p,0
115300,9,3,3,7,m,Kevin.jpg,pieFS3.bmp,1455982,1459591,3609,p,0
115300,10,1,8,8,f,Silvia.jpg,pieFS1.bmp,1467220,1472851,5631,q,1
115300,11,4,4,16,f,Laura.jpg,pieFS4.bmp,1480488,1483271,2783,p,0
115300,12,5,2,18,m,David.jpg,pieFS5.bmp,1490910,1494171,3261,p,0
115300,13,3,1,2,f,Christina.jpg,pieFS3.bmp,1501798,1505971,4173,q,1
115300,14,1,9,9,m,Michael.jpg,pieFS1.bmp,1513601,1515651,2050,q,1
115300,15,4,1,4,m,Tom.jpg,pieFS4.bmp,1523290,1526412,3122,p,0
115300,16,5,1,9,f,Becky.jpg,pieFS5.bmp,1534045,1536412,2367,p,0
115300,17,5,1,9,m,Paul.jpg,pieFS5.bmp,1544050,1547852,3802,p,0
115300,18,4,2,8,f,Liz.jpg,pieFS4.bmp,1555504,1559152,3648,p,0
115300,19,4,4,16,m,John.jpg,pieFS4.bmp,1566791,1569852,3061,p,0
115300,20,5,1,9,m,Chris.jpg,pieFS5.bmp,1577479,1580272,2793,p,0
115300,21,4,1,4,f,Sandra.jpg,pieFS4.bmp,1587901,1591432,3531,p,0
115300,22,5,2,18,m,Stephan.jpg,pieFS5.bmp,1599072,1603252,4180,p,0
115300,23,3,5,11,f,Michelle.jpg,pieFS3.bmp,1610892,1616692,5800,q,1
115300,24,2,5,7,m,Frank.jpg,pieFS2.bmp,1624327,1626712,2385,q,1
115300,25,5,2,18,f,Jane.jpg,pieFS5.bmp,1634349,1636592,2243,p,0
115300,26,2,5,7,f,Mary.jpg,pieFS2.bmp,1644221,1646412,2191,q,1
202200,1,5,2,18,f,Mary.jpg,pieFS5.bmp,514820,519796,4976,q,1
202200,2,4,3,12,f,Susan.jpg,pieFS4.bmp,527444,530239,2795,p,0
202200,3,3,4,9,f,Jane.jpg,pieFS3.bmp,537895,540419,2524,q,1
202200,4,4,2,8,f,Liz.jpg,pieFS4.bmp,548061,550357,2296,p,0
202200,5,3,3,7,m,Paul.jpg,pieFS3.bmp,558027,560426,2399,p,0
202200,6,4,4,16,f,Laura.jpg,pieFS4.bmp,568076,570451,2375,q,1
202200,7,5,2,18,m,Frank.jpg,pieFS5.bmp,578092,580075,1983,p,0
202200,8,4,1,4,f,Christina.jpg,pieFS4.bmp,587723,591456,3733,p,0
202200,9,2,3,4,m,Richard.jpg,pieFS2.bmp,599110,601130,2020,q,1
202200,10,3,5,11,m,Kevin.jpg,pieFS3.bmp,608775,610636,1861,q,1
202200,11,3,2,4,f,Anita.jpg,pieFS3.bmp,618272,620348,2076,q,1
202200,12,5,1,9,m,Robert.jpg,pieFS5.bmp,627987,629811,1824,p,0
202200,13,4,4,16,m,John.jpg,pieFS4.bmp,637434,639378,1944,p,0
202200,14,1,8,8,f,Michelle.jpg,pieFS1.bmp,647032,649147,2115,q,1
202200,15,3,6,14,m,Eric.jpg,pieFS3.bmp,656797,658541,1744,q,1
202200,16,5,2,18,m,David.jpg,pieFS5.bmp,666177,667784,1607,p,0
202200,17,5,1,9,f,Becky.jpg,pieFS5.bmp,675441,676952,1511,p,0
202200,18,2,5,7,m,Tom.jpg,pieFS2.bmp,684604,686472,1868,q,1
202200,19,3,1,2,f,Silvia.jpg,pieFS3.bmp,694135,696334,2199,q,1
202200,20,4,1,4,m,James.jpg,pieFS4.bmp,703983,705638,1655,p,0
202200,21,2,5,7,f,Sandra.jpg,pieFS2.bmp,713263,715482,2219,q,1
202200,22,5,2,18,f,Anna.jpg,pieFS5.bmp,723145,725137,1992,p,0
202200,23,3,5,11,f,Jessica.jpg,pieFS3.bmp,732777,735225,2448,q,1
202200,24,4,3,12,m,Michael.jpg,pieFS4.bmp,742876,745312,2436,p,0
202200,25,5,1,9,m,Stephan.jpg,pieFS5.bmp,752959,754588,1629,p,0
202200,26,1,9,9,m,Chris.jpg,pieFS1.bmp,762239,764437,2198,q,1
203803,1,4,4,16,m,David.jpg,pieFS4.bmp,385044,397352,12308,q,1
203803,2,1,8,8,f,Susan.jpg,pieFS1.bmp,404989,407472,2483,q,1
203803,3,4,4,16,f,Sandra.jpg,pieFS4.bmp,415094,422052,6958,q,1
203803,4,3,3,7,m,Chris.jpg,pieFS3.bmp,429695,432112,2417,q,1
203803,5,4,3,12,m,John.jpg,pieFS4.bmp,439750,444933,5183,p,0
203803,6,2,5,7,f,Christina.jpg,pieFS2.bmp,452586,454573,1987,q,1
203803,7,3,1,2,f,Anna.jpg,pieFS3.bmp,462226,464893,2667,q,1
203803,8,3,6,14,m,Paul.jpg,pieFS3.bmp,472531,477213,4682,q,1
203803,9,4,3,12,f,Silvia.jpg,pieFS4.bmp,484884,488813,3929,p,0
203803,10,5,1,9,m,Frank.jpg,pieFS5.bmp,496471,498914,2443,p,0
203803,11,5,2,18,f,Michelle.jpg,pieFS5.bmp,506560,509654,3094,p,0
203803,12,5,2,18,m,James.jpg,pieFS5.bmp,517281,520634,3353,p,0
203803,13,5,1,9,m,Stephan.jpg,pieFS5.bmp,528302,531194,2892,p,0
203803,14,3,2,4,f,Jane.jpg,pieFS3.bmp,538940,540855,1915,q,1
203803,15,4,1,4,f,Anita.jpg,pieFS4.bmp,548580,551775,3195,q,1
203803,16,3,5,11,m,Richard.jpg,pieFS3.bmp,559468,561875,2407,q,1
203803,17,2,3,4,m,Eric.jpg,pieFS2.bmp,569556,571655,2099,q,1
203803,18,3,4,9,f,Becky.jpg,pieFS3.bmp,579346,581316,1970,q,1
203803,19,2,5,7,m,Kevin.jpg,pieFS2.bmp,589002,590816,1814,q,1
203803,20,5,2,18,m,Tom.jpg,pieFS5.bmp,598508,602496,3988,p,0
203803,21,5,2,18,f,Laura.jpg,pieFS5.bmp,610211,612756,2545,p,0
203803,22,5,1,9,f,Mary.jpg,pieFS5.bmp,620467,624756,4289,p,0
203803,23,1,9,9,m,Michael.jpg,pieFS1.bmp,632487,634676,2189,q,1
203803,24,3,5,11,f,Jessica.jpg,pieFS3.bmp,642426,644297,1871,q,1
203803,25,4,1,4,m,Robert.jpg,pieFS4.bmp,652032,654077,2045,q,1
203803,26,4,2,8,f,Liz.jpg,pieFS4.bmp,661804,664077,2273,q,1
204059,1,4,1,4,m,Michael.jpg,pieFS4.bmp,121445,125135,3690,m,0
204059,2,3,5,11,m,Chris.jpg,pieFS3.bmp,132715,135573,2858,z,1
204059,3,4,1,4,f,Susan.jpg,pieFS4.bmp,143149,145870,2721,m,0
204059,4,5,2,18,f,Liz.jpg,pieFS5.bmp,153449,155761,2312,m,0
204059,5,4,2,8,f,Anita.jpg,pieFS4.bmp,163331,166434,3103,z,1
204059,6,4,4,16,m,Frank.jpg,pieFS4.bmp,174016,176542,2526,z,1
204059,7,5,1,9,m,Eric.jpg,pieFS5.bmp,184115,190621,6506,m,0
204059,8,3,4,9,f,Becky.jpg,pieFS3.bmp,198194,200581,2387,z,1
204059,9,5,2,18,m,John.jpg,pieFS5.bmp,208160,211340,3180,m,0
204059,10,3,6,14,m,Robert.jpg,pieFS3.bmp,218911,221091,2180,z,1
204059,11,5,1,9,m,James.jpg,pieFS5.bmp,228676,230951,2275,m,0
204059,12,3,1,2,f,Michelle.jpg,pieFS3.bmp,238525,240876,2351,z,1
204059,13,4,4,16,f,Laura.jpg,pieFS4.bmp,248457,250955,2498,z,1
204059,14,3,5,11,f,Jane.jpg,pieFS3.bmp,258540,260691,2151,z,1
204059,15,1,8,8,f,Anna.jpg,pieFS1.bmp,268271,271769,3498,z,1
204059,16,5,1,9,f,Sandra.jpg,pieFS5.bmp,279341,282035,2694,m,0
204059,17,2,3,4,m,Paul.jpg,pieFS2.bmp,289607,291832,2225,z,1
204059,18,1,9,9,m,David.jpg,pieFS1.bmp,299406,301614,2208,z,1
204059,19,5,2,18,f,Jessica.jpg,pieFS5.bmp,309188,311261,2073,m,0
204059,20,4,3,12,f,Christina.jpg,pieFS4.bmp,318835,321364,2529,m,0
204059,21,4,3,12,m,Kevin.jpg,pieFS4.bmp,328935,331246,2311,m,0
204059,22,3,2,4,f,Silvia.jpg,pieFS3.bmp,338817,340731,1914,z,1
204059,23,2,5,7,f,Mary.jpg,pieFS2.bmp,348314,350216,1902,z,1
204059,24,5,2,18,m,Richard.jpg,pieFS5.bmp,357795,360201,2406,m,0
204059,25,2,5,7,m,Stephan.jpg,pieFS2.bmp,367778,369748,1970,z,1
204059,26,3,3,7,m,Tom.jpg,pieFS3.bmp,377325,380855,3530,z,1
206270,1,5,2,18,f,Susan.jpg,pieFS5.bmp,188490,193578,5088,q,1
206270,2,4,2,8,f,Michelle.jpg,pieFS4.bmp,201226,202658,1432,q,1
206270,3,3,5,11,f,Anna.jpg,pieFS3.bmp,210282,213059,2777,q,1
206270,4,2,5,7,f,Mary.jpg,pieFS2.bmp,220704,222379,1675,q,1
206270,5,3,3,7,m,Kevin.jpg,pieFS3.bmp,230027,231639,1612,q,1
206270,6,4,4,16,f,Jessica.jpg,pieFS4.bmp,239284,240719,1435,q,1
206270,7,5,2,18,m,Robert.jpg,pieFS5.bmp,248357,251200,2843,q,1
206270,8,4,1,4,m,Frank.jpg,pieFS4.bmp,258846,260060,1214,q,1
206270,9,4,4,16,m,James.jpg,pieFS4.bmp,267686,268680,994,q,1
206270,10,2,5,7,m,Stephan.jpg,pieFS2.bmp,276310,278420,2110,q,1
206270,11,5,1,9,m,Tom.jpg,pieFS5.bmp,286049,288681,2632,q,1
206270,12,5,1,9,f,Anita.jpg,pieFS5.bmp,296304,298161,1857,q,1
206270,13,3,6,14,m,Eric.jpg,pieFS3.bmp,305794,307081,1287,q,1
206270,14,3,5,11,m,Michael.jpg,pieFS3.bmp,314717,315921,1204,q,1
206270,15,1,9,9,m,Richard.jpg,pieFS1.bmp,323591,324802,1211,q,1
206270,16,5,1,9,m,John.jpg,pieFS5.bmp,332431,334222,1791,q,1
206270,17,3,2,4,f,Jane.jpg,pieFS3.bmp,341871,343122,1251,q,1
206270,18,3,4,9,f,Laura.jpg,pieFS3.bmp,350778,352122,1344,q,1
206270,19,4,3,12,m,Paul.jpg,pieFS4.bmp,359768,361083,1315,q,1
206270,20,1,8,8,f,Christina.jpg,pieFS1.bmp,368708,371703,2995,q,1
206270,21,4,1,4,f,Sandra.jpg,pieFS4.bmp,379346,381743,2397,q,1
206270,22,4,3,12,f,Becky.jpg,pieFS4.bmp,389385,392004,2619,q,1
206270,23,2,3,4,m,David.jpg,pieFS2.bmp,399674,402084,2410,q,1
206270,24,3,1,2,f,Silvia.jpg,pieFS3.bmp,409763,411484,1721,q,1
206270,25,5,2,18,f,Liz.jpg,pieFS5.bmp,419169,421864,2695,q,1
206270,26,5,2,18,m,Chris.jpg,pieFS5.bmp,429541,430864,1323,q,1
207224,1,5,1,9,m,Kevin.jpg,pieFS5.bmp,148002,152347,4345,z,1
207224,2,5,1,9,m,Robert.jpg,pieFS5.bmp,159924,161849,1925,z,1
207224,3,1,9,9,m,James.jpg,pieFS1.bmp,169422,171566,2144,z,1
207224,4,2,3,4,m,Richard.jpg,pieFS2.bmp,179137,180734,1597,z,1
207224,5,5,2,18,f,Anita.jpg,pieFS5.bmp,188316,189678,1362,z,1
207224,6,4,4,16,f,Silvia.jpg,pieFS4.bmp,197262,199015,1753,z,1
207224,7,3,3,7,m,Michael.jpg,pieFS3.bmp,206592,210602,4010,z,1
207224,8,4,4,16,m,Eric.jpg,pieFS4.bmp,218180,219222,1042,z,1
207224,9,4,3,12,m,Paul.jpg,pieFS4.bmp,226808,227907,1099,z,1
207224,10,3,4,9,f,Jessica.jpg,pieFS3.bmp,235486,236907,1421,z,1
207224,11,2,5,7,f,Susan.jpg,pieFS2.bmp,244482,245513,1031,z,1
207224,12,4,1,4,f,Sandra.jpg,pieFS4.bmp,253093,254588,1495,z,1
207224,13,5,2,18,m,Tom.jpg,pieFS5.bmp,262172,263287,1115,z,1
207224,14,5,2,18,m,Frank.jpg,pieFS5.bmp,270867,271855,988,z,1
207224,15,3,1,2,f,Anna.jpg,pieFS3.bmp,279428,280682,1254,z,1
207224,16,5,1,9,f,Jane.jpg,pieFS5.bmp,288257,290080,1823,z,1
207224,17,1,8,8,f,Laura.jpg,pieFS1.bmp,297654,298855,1201,z,1
207224,18,5,2,18,f,Michelle.jpg,pieFS5.bmp,306433,307442,1009,z,1
207224,19,3,5,11,f,Mary.jpg,pieFS3.bmp,315027,316048,1021,z,1
207224,20,3,6,14,m,John.jpg,pieFS3.bmp,323622,324579,957,z,1
207224,21,4,1,4,m,David.jpg,pieFS4.bmp,332149,333442,1293,z,1
207224,22,3,2,4,f,Christina.jpg,pieFS3.bmp,341028,342180,1152,z,1
207224,23,3,5,11,m,Stephan.jpg,pieFS3.bmp,349756,350809,1053,z,1
207224,24,4,3,12,f,Becky.jpg,pieFS4.bmp,358384,359321,937,z,1
207224,25,4,2,8,f,Liz.jpg,pieFS4.bmp,366895,367889,994,z,1
207224,26,2,5,7,m,Chris.jpg,pieFS2.bmp,375473,376646,1173,z,1
208427,1,2,5,7,m,Eric.jpg,pieFS2.bmp,438145,443254,5109,q,1
208427,2,2,5,7,f,Liz.jpg,pieFS2.bmp,450897,454714,3817,q,1
208427,3,5,1,9,m,Tom.jpg,pieFS5.bmp,462368,465314,2946,q,1
208427,4,5,2,18,f,Sandra.jpg,pieFS5.bmp,472956,476214,3258,p,0
208427,5,1,9,9,m,Kevin.jpg,pieFS1.bmp,483860,486814,2954,q,1
208427,6,3,5,11,m,Michael.jpg,pieFS3.bmp,494448,497114,2666,q,1
208427,7,4,1,4,f,Jessica.jpg,pieFS4.bmp,504754,507774,3020,p,0
208427,8,4,1,4,m,Richard.jpg,pieFS4.bmp,515425,519674,4249,p,0
208427,9,5,2,18,f,Anna.jpg,pieFS5.bmp,527311,529754,2443,p,0
208427,10,5,2,18,m,Frank.jpg,pieFS5.bmp,537384,539234,1850,p,0
208427,11,2,3,4,m,David.jpg,pieFS2.bmp,547189,549494,2305,q,1
208427,12,4,3,12,f,Laura.jpg,pieFS4.bmp,557128,559774,2646,p,0
208427,13,5,1,9,m,Stephan.jpg,pieFS5.bmp,567416,570734,3318,p,0
208427,14,3,4,9,f,Jane.jpg,pieFS3.bmp,578387,580814,2427,q,1
208427,15,3,6,14,m,Paul.jpg,pieFS3.bmp,588509,591655,3146,q,1
208427,16,5,1,9,f,Becky.jpg,pieFS5.bmp,599364,601474,2110,p,0
208427,17,4,3,12,m,James.jpg,pieFS4.bmp,609186,612574,3388,p,0
208427,18,3,2,4,f,Silvia.jpg,pieFS3.bmp,620274,622695,2421,q,1
208427,19,3,1,2,f,Mary.jpg,pieFS3.bmp,630396,632774,2378,q,1
208427,20,4,2,8,f,Christina.jpg,pieFS4.bmp,640451,642635,2184,p,0
208427,21,1,8,8,f,Michelle.jpg,pieFS1.bmp,650340,655235,4895,q,1
208427,22,4,4,16,m,Chris.jpg,pieFS4.bmp,662909,666735,3826,p,0
208427,23,4,4,16,f,Anita.jpg,pieFS4.bmp,674396,676775,2379,p,0
208427,24,3,3,7,m,Robert.jpg,pieFS3.bmp,684451,687095,2644,q,1
208427,25,5,2,18,m,John.jpg,pieFS5.bmp,694773,696455,1682,p,0
208427,26,3,5,11,f,Susan.jpg,pieFS3.bmp,704146,708155,4009,p,0
208510,1,5,1,9,m,Eric.jpg,pieFS5.bmp,181618,193007,11389,p,0
208510,2,4,3,12,m,David.jpg,pieFS4.bmp,200730,203627,2897,p,0
208510,3,4,3,12,f,Sandra.jpg,pieFS4.bmp,211335,235027,23692,p,0
208510,4,4,1,4,m,Kevin.jpg,pieFS4.bmp,242750,245947,3197,p,0
208510,5,3,5,11,f,Susan.jpg,pieFS3.bmp,253671,256467,2796,p,0
208510,6,3,3,7,m,Richard.jpg,pieFS3.bmp,264176,266868,2692,p,0
208510,7,1,9,9,m,Frank.jpg,pieFS1.bmp,274564,280328,5764,q,1
208510,8,5,2,18,m,Stephan.jpg,pieFS5.bmp,288032,291228,3196,p,0
208510,9,2,3,4,m,Chris.jpg,pieFS2.bmp,298937,301868,2931,p,0
208510,10,2,5,7,m,Tom.jpg,pieFS2.bmp,309575,311848,2273,p,0
208510,11,5,1,9,m,James.jpg,pieFS5.bmp,319564,324068,4504,p,0
208510,12,4,2,8,f,Laura.jpg,pieFS4.bmp,331783,334068,2285,p,0
208510,13,3,2,4,f,Liz.jpg,pieFS3.bmp,341789,344488,2699,p,0
208510,14,5,2,18,f,Anna.jpg,pieFS5.bmp,352194,354789,2595,p,0
208510,15,3,1,2,f,Christina.jpg,pieFS3.bmp,362499,365329,2830,p,0
208510,16,5,1,9,f,Mary.jpg,pieFS5.bmp,373037,375549,2512,p,0
208510,17,3,6,14,m,Paul.jpg,pieFS3.bmp,383243,389769,6526,q,1
208510,18,4,4,16,f,Michelle.jpg,pieFS4.bmp,397477,400989,3512,p,0
208510,19,5,2,18,m,John.jpg,pieFS5.bmp,408697,410889,2192,p,0
208510,20,3,5,11,m,Michael.jpg,pieFS3.bmp,418586,422549,3963,q,1
208510,21,2,5,7,f,Anita.jpg,pieFS2.bmp,430240,434049,3809,q,1
208510,22,3,4,9,f,Jessica.jpg,pieFS3.bmp,441760,444129,2369,p,0
208510,23,4,4,16,m,Robert.jpg,pieFS4.bmp,451833,453330,1497,p,0
208510,24,4,1,4,f,Silvia.jpg,pieFS4.bmp,461039,463070,2031,p,0
208510,25,5,2,18,f,Becky.jpg,pieFS5.bmp,470778,472210,1432,p,0
208510,26,1,8,8,f,Jane.jpg,pieFS1.bmp,479918,483310,3392,q,1
208806,1,5,2,18,f,Becky.jpg,pieFS5.bmp,234194,236919,2725,p,0
208806,2,2,3,4,m,Michael.jpg,pieFS2.bmp,244549,246799,2250,q,1
208806,3,5,1,9,f,Jessica.jpg,pieFS5.bmp,254438,256479,2041,p,0
208806,4,5,2,18,m,Robert.jpg,pieFS5.bmp,264111,265919,1808,p,0
208806,5,3,6,14,m,Frank.jpg,pieFS3.bmp,273550,275079,1529,q,1
208806,6,2,5,7,m,Kevin.jpg,pieFS2.bmp,282706,284520,1814,q,1
208806,7,5,2,18,m,David.jpg,pieFS5.bmp,292146,293940,1794,p,0
208806,8,4,4,16,f,Jane.jpg,pieFS4.bmp,301568,303320,1752,q,1
208806,9,4,4,16,m,Chris.jpg,pieFS4.bmp,310958,312480,1522,q,1
208806,10,4,3,12,f,Anna.jpg,pieFS4.bmp,320114,322520,2406,p,0
208806,11,3,3,7,m,Richard.jpg,pieFS3.bmp,330153,332020,1867,q,1
208806,12,4,2,8,f,Anita.jpg,pieFS4.bmp,339642,341620,1978,q,1
208806,13,3,5,11,f,Susan.jpg,pieFS3.bmp,349248,351220,1972,q,1
208806,14,2,5,7,f,Sandra.jpg,pieFS2.bmp,358837,360380,1543,q,1
208806,15,5,1,9,m,Eric.jpg,pieFS5.bmp,368010,369840,1830,p,0
208806,16,3,5,11,m,Stephan.jpg,pieFS3.bmp,377467,378880,1413,q,1
208806,17,3,2,4,f,Mary.jpg,pieFS3.bmp,386506,388040,1534,q,1
208806,18,4,3,12,m,John.jpg,pieFS4.bmp,395663,396940,1277,q,1
208806,19,4,1,4,f,Christina.jpg,pieFS4.bmp,404569,406880,2311,q,1
208806,20,5,1,9,m,James.jpg,pieFS5.bmp,414508,416420,1912,p,0
208806,21,3,1,2,f,Silvia.jpg,pieFS3.bmp,424047,425660,1613,q,1
208806,22,1,9,9,m,Tom.jpg,pieFS1.bmp,433287,435440,2153,q,1
208806,23,4,1,4,m,Paul.jpg,pieFS4.bmp,443059,444460,1401,q,1
208806,24,3,4,9,f,Liz.jpg,pieFS3.bmp,452083,453460,1377,q,1
208806,25,5,2,18,f,Laura.jpg,pieFS5.bmp,461089,462640,1551,q,1
208806,26,1,8,8,f,Michelle.jpg,pieFS1.bmp,470262,471740,1478,q,1
209452,1,3,5,11,m,Michael.jpg,pieFS3.bmp,144957,150448,5491,q,1
209452,2,4,1,4,f,Jane.jpg,pieFS4.bmp,158076,162948,4872,q,1
209452,3,4,2,8,f,Christina.jpg,pieFS4.bmp,170579,175029,4450,p,0
209452,4,3,4,9,f,Silvia.jpg,pieFS3.bmp,182649,185329,2680,q,1
209452,5,5,2,18,f,Mary.jpg,pieFS5.bmp,192954,201649,8695,q,1
209452,6,3,6,14,m,Paul.jpg,pieFS3.bmp,209269,211809,2540,q,1
209452,7,4,3,12,m,Robert.jpg,pieFS4.bmp,219441,222309,2868,q,1
209452,8,5,1,9,m,David.jpg,pieFS5.bmp,229929,233369,3440,q,1
209452,9,3,2,4,f,Liz.jpg,pieFS3.bmp,241000,244469,3469,q,1
209452,10,2,5,7,m,Frank.jpg,pieFS2.bmp,252088,254309,2221,q,1
209452,11,4,4,16,m,Stephan.jpg,pieFS4.bmp,261927,264529,2602,q,1
209452,12,5,1,9,f,Susan.jpg,pieFS5.bmp,272149,276049,3900,q,1
209452,13,1,8,8,f,Anita.jpg,pieFS1.bmp,283669,286310,2641,q,1
209452,14,1,9,9,m,Kevin.jpg,pieFS1.bmp,293941,296310,2369,q,1
209452,15,4,3,12,f,Sandra.jpg,pieFS4.bmp,303930,312290,8360,p,0
209452,16,4,4,16,f,Jessica.jpg,pieFS4.bmp,319912,325050,5138,p,0
209452,17,3,1,2,f,Laura.jpg,pieFS3.bmp,332681,335050,2369,q,1
209452,18,3,3,7,m,Richard.jpg,pieFS3.bmp,342670,345130,2460,q,1
209452,19,5,2,18,m,Chris.jpg,pieFS5.bmp,352758,358990,6232,q,1
209452,20,3,5,11,f,Becky.jpg,pieFS3.bmp,366610,368631,2021,q,1
209452,21,5,2,18,m,Tom.jpg,pieFS5.bmp,376249,379111,2862,p,0
209452,22,4,1,4,m,John.jpg,pieFS4.bmp,386737,391111,4374,q,1
209452,23,5,1,9,m,James.jpg,pieFS5.bmp,398740,403651,4911,p,0
209452,24,5,2,18,f,Anna.jpg,pieFS5.bmp,411293,414931,3638,p,0
209452,25,2,5,7,f,Michelle.jpg,pieFS2.bmp,422564,424771,2207,q,1
209452,26,2,3,4,m,Eric.jpg,pieFS2.bmp,432403,435331,2928,q,1
209468,1,4,4,16,m,James.jpg,pieFS4.bmp,318173,341972,23799,q,1
209468,2,3,2,4,f,Silvia.jpg,pieFS3.bmp,349705,353932,4227,q,1
209468,3,4,3,12,f,Laura.jpg,pieFS4.bmp,361642,365253,3611,p,0
209468,4,4,1,4,m,Richard.jpg,pieFS4.bmp,372996,376313,3317,p,0
209468,5,3,3,7,m,Paul.jpg,pieFS3.bmp,384017,387833,3816,p,0
209468,6,5,1,9,f,Liz.jpg,pieFS5.bmp,395538,398534,2996,p,0
209468,7,2,5,7,m,Tom.jpg,pieFS2.bmp,406243,410414,4171,q,1
209468,8,3,4,9,f,Sandra.jpg,pieFS3.bmp,418146,420634,2488,q,1
209468,9,3,5,11,f,Michelle.jpg,pieFS3.bmp,428335,431594,3259,q,1
209468,10,4,1,4,f,Susan.jpg,pieFS4.bmp,439340,442695,3355,p,0
209468,11,5,2,18,f,Jane.jpg,pieFS5.bmp,450427,454315,3888,p,0
209468,12,3,5,11,m,Stephan.jpg,pieFS3.bmp,462064,469115,7051,q,1
209468,13,5,2,18,m,Robert.jpg,pieFS5.bmp,476881,481696,4815,p,0
209468,14,5,1,9,m,Frank.jpg,pieFS5.bmp,489434,491916,2482,p,0
209468,15,3,1,2,f,Christina.jpg,pieFS3.bmp,499656,502517,2861,q,1
209468,16,4,2,8,f,Mary.jpg,pieFS4.bmp,510278,513757,3479,p,0
209468,17,1,8,8,f,Becky.jpg,pieFS1.bmp,521499,525077,3578,q,1
209468,18,2,5,7,f,Anita.jpg,pieFS2.bmp,532803,535537,2734,q,1
209468,19,2,3,4,m,Eric.jpg,pieFS2.bmp,543292,545837,2545,q,1
209468,20,5,1,9,m,John.jpg,pieFS5.bmp,553580,557698,4118,p,0
209468,21,4,4,16,f,Jessica.jpg,pieFS4.bmp,565450,568318,2868,p,0
209468,22,5,2,18,m,Chris.jpg,pieFS5.bmp,576039,580438,4399,p,0
209468,23,3,6,14,m,David.jpg,pieFS3.bmp,588192,591379,3187,q,1
209468,24,5,2,18,f,Anna.jpg,pieFS5.bmp,599130,602919,3789,p,0
209468,25,4,3,12,m,Kevin.jpg,pieFS4.bmp,610651,613119,2468,p,0
209468,26,1,9,9,m,Michael.jpg,pieFS1.bmp,620856,624139,3283,q,1
209662,1,4,4,16,m,Chris.jpg,pieFS4.bmp,499075,526733,27658,q,1
209662,2,3,1,2,f,Silvia.jpg,pieFS3.bmp,534385,538573,4188,q,1
209662,3,5,2,18,m,Tom.jpg,pieFS5.bmp,546222,553513,7291,p,0
209662,4,3,4,9,f,Mary.jpg,pieFS3.bmp,561139,566993,5854,q,1
209662,5,5,1,9,m,Stephan.jpg,pieFS5.bmp,574624,585193,10569,q,1
209662,6,4,1,4,m,Frank.jpg,pieFS4.bmp,592820,598013,5193,q,1
209662,7,4,3,12,f,Anita.jpg,pieFS4.bmp,605639,610434,4795,q,1
209662,8,4,1,4,f,Laura.jpg,pieFS4.bmp,618058,627294,9236,q,1
209662,9,3,6,14,m,Paul.jpg,pieFS3.bmp,634923,638314,3391,q,1
209662,10,5,1,9,m,David.jpg,pieFS5.bmp,645944,653974,8030,p,0
209662,11,5,2,18,m,James.jpg,pieFS5.bmp,661626,668494,6868,q,1
209662,12,2,5,7,m,Eric.jpg,pieFS2.bmp,676144,681054,4910,q,1
209662,13,1,9,9,m,Michael.jpg,pieFS1.bmp,688680,692374,3694,q,1
209662,14,4,3,12,m,Kevin.jpg,pieFS4.bmp,700000,707615,7615,q,1
209662,15,2,3,4,m,Robert.jpg,pieFS2.bmp,715250,718755,3505,q,1
209662,16,1,8,8,f,Liz.jpg,pieFS1.bmp,726404,729935,3531,q,1
209662,17,4,2,8,f,Michelle.jpg,pieFS4.bmp,737575,742795,5220,p,0
209662,18,2,5,7,f,Christina.jpg,pieFS2.bmp,750444,753675,3231,q,1
209662,19,4,4,16,f,Anna.jpg,pieFS4.bmp,761315,769295,7980,q,1
209662,20,3,2,4,f,Jessica.jpg,pieFS3.bmp,776931,780475,3544,q,1
209662,21,3,5,11,m,Richard.jpg,pieFS3.bmp,788102,792375,4273,q,1
209662,22,5,2,18,f,Susan.jpg,pieFS5.bmp,800005,802936,2931,p,0
209662,23,3,5,11,f,Becky.jpg,pieFS3.bmp,810560,817876,7316,q,1
209662,24,5,2,18,f,Jane.jpg,pieFS5.bmp,825510,828356,2846,p,0
209662,25,3,3,7,m,John.jpg,pieFS3.bmp,835982,843536,7554,p,0
209662,26,5,1,9,f,Sandra.jpg,pieFS5.bmp,851165,854396,3231,p,0
209847,1,3,6,14,m,David.jpg,pieFS3.bmp,397366,399728,2362,q,1
209847,2,5,1,9,f,Liz.jpg,pieFS5.bmp,407355,409729,2374,q,1
209847,3,4,3,12,f,Jessica.jpg,pieFS4.bmp,417361,418949,1588,q,1
209847,4,4,1,4,m,James.jpg,pieFS4.bmp,426567,428489,1922,q,1
209847,5,4,4,16,m,Robert.jpg,pieFS4.bmp,436107,438069,1962,q,1
209847,6,5,2,18,f,Michelle.jpg,pieFS5.bmp,445696,447869,2173,q,1
209847,7,4,3,12,m,Paul.jpg,pieFS4.bmp,455502,457469,1967,q,1
209847,8,2,5,7,m,Frank.jpg,pieFS2.bmp,465124,467389,2265,q,1
209847,9,3,1,2,f,Susan.jpg,pieFS3.bmp,475030,477330,2300,q,1
209847,10,5,2,18,m,Tom.jpg,pieFS5.bmp,484969,486730,1761,q,1
209847,11,3,3,7,m,Stephan.jpg,pieFS3.bmp,494359,496110,1751,q,1
209847,12,5,2,18,f,Sandra.jpg,pieFS5.bmp,503732,505330,1598,q,1
209847,13,5,1,9,m,Chris.jpg,pieFS5.bmp,512955,514730,1775,q,1
209847,14,1,8,8,f,Laura.jpg,pieFS1.bmp,522361,524431,2070,q,1
209847,15,4,1,4,f,Jane.jpg,pieFS4.bmp,532050,533891,1841,q,1
209847,16,3,5,11,f,Mary.jpg,pieFS3.bmp,541523,543311,1788,q,1
209847,17,4,2,8,f,Silvia.jpg,pieFS4.bmp,550929,552851,1922,q,1
209847,18,3,5,11,m,Eric.jpg,pieFS3.bmp,560469,562051,1582,q,1
209847,19,3,2,4,f,Christina.jpg,pieFS3.bmp,569675,571811,2136,q,1
209847,20,1,9,9,m,Kevin.jpg,pieFS1.bmp,579431,581472,2041,q,1
209847,21,4,4,16,f,Anita.jpg,pieFS4.bmp,589104,591832,2728,q,1
209847,22,5,2,18,m,Michael.jpg,pieFS5.bmp,599459,601232,1773,q,1
209847,23,5,1,9,m,John.jpg,pieFS5.bmp,608865,610492,1627,q,1
209847,24,3,4,9,f,Becky.jpg,pieFS3.bmp,618121,619872,1751,q,1
209847,25,2,3,4,m,Richard.jpg,pieFS2.bmp,627494,629793,2299,q,1
209847,26,2,5,7,f,Anna.jpg,pieFS2.bmp,637417,639173,1756,q,1
210079,1,5,2,18,f,Laura.jpg,pieFS5.bmp,192128,196072,3944,p,0
210079,2,1,8,8,f,Mary.jpg,pieFS1.bmp,203699,206632,2933,q,1
210079,3,5,2,18,m,Stephan.jpg,pieFS5.bmp,214253,222772,8519,q,1
210079,4,4,3,12,m,David.jpg,pieFS4.bmp,230402,235192,4790,q,1
210079,5,2,3,4,m,Robert.jpg,pieFS2.bmp,242821,244593,1772,q,1
210079,6,2,5,7,m,Eric.jpg,pieFS2.bmp,252227,254333,2106,q,1
210079,7,3,2,4,f,Michelle.jpg,pieFS3.bmp,261966,263953,1987,q,1
210079,8,3,1,2,f,Jessica.jpg,pieFS3.bmp,271572,273273,1701,q,1
210079,9,4,1,4,m,James.jpg,pieFS4.bmp,280895,283633,2738,q,1
210079,10,3,5,11,f,Silvia.jpg,pieFS3.bmp,291267,292973,1706,q,1
210079,11,5,1,9,m,Richard.jpg,pieFS5.bmp,300606,306133,5527,q,1
210079,12,5,2,18,f,Becky.jpg,pieFS5.bmp,313758,316533,2775,p,0
210079,13,4,3,12,f,Christina.jpg,pieFS4.bmp,324163,326233,2070,q,1
210079,14,3,3,7,m,Michael.jpg,pieFS3.bmp,333852,335493,1641,q,1
210079,15,2,5,7,f,Susan.jpg,pieFS2.bmp,343125,345533,2408,q,1
210079,16,3,6,14,m,John.jpg,pieFS3.bmp,353164,355513,2349,q,1
210079,17,5,2,18,m,Kevin.jpg,pieFS5.bmp,363136,365373,2237,q,1
210079,18,1,9,9,m,Chris.jpg,pieFS1.bmp,373008,375433,2425,q,1
210079,19,4,1,4,f,Jane.jpg,pieFS4.bmp,383064,385273,2209,q,1
210079,20,3,5,11,m,Paul.jpg,pieFS3.bmp,392903,394313,1410,q,1
210079,21,4,4,16,m,Frank.jpg,pieFS4.bmp,401942,409293,7351,q,1
210079,22,4,2,8,f,Liz.jpg,pieFS4.bmp,416926,422453,5527,q,1
210079,23,5,1,9,m,Tom.jpg,pieFS5.bmp,430077,433633,3556,p,0
210079,24,4,4,16,f,Anita.jpg,pieFS4.bmp,441265,442993,1728,q,1
210079,25,3,4,9,f,Anna.jpg,pieFS3.bmp,450621,452413,1792,q,1
210079,26,5,1,9,f,Sandra.jpg,pieFS5.bmp,460044,466053,6009,p,0
210100,1,2,5,7,m,David.jpg,pieFS2.bmp,798308,802890,4582,q,1
210100,2,3,5,11,f,Laura.jpg,pieFS3.bmp,810531,814314,3783,q,1
210100,3,1,9,9,m,Stephan.jpg,pieFS1.bmp,821968,826369,4401,q,1
210100,4,5,2,18,f,Jessica.jpg,pieFS5.bmp,834024,840151,6127,p,0
210100,5,5,2,18,m,Paul.jpg,pieFS5.bmp,847802,851303,3501,q,1
210100,6,2,5,7,f,Anita.jpg,pieFS2.bmp,858955,862180,3225,q,1
210100,7,2,3,4,m,Robert.jpg,pieFS2.bmp,869823,876974,7151,q,1
210100,8,4,1,4,f,Becky.jpg,pieFS4.bmp,884621,889386,4765,p,0
210100,9,5,1,9,m,Kevin.jpg,pieFS5.bmp,897028,901554,4526,q,1
210100,10,3,3,7,m,James.jpg,pieFS3.bmp,909201,916873,7672,p,0
210100,11,4,2,8,f,Christina.jpg,pieFS4.bmp,924517,928523,4006,q,1
210100,12,1,8,8,f,Jane.jpg,pieFS1.bmp,936172,939372,3200,q,1
210100,13,3,5,11,m,John.jpg,pieFS3.bmp,947023,950565,3542,q,1
210100,14,5,2,18,m,Richard.jpg,pieFS5.bmp,958210,960952,2742,p,0
210100,15,3,4,9,f,Mary.jpg,pieFS3.bmp,968593,971747,3154,q,1
210100,16,5,2,18,f,Silvia.jpg,pieFS5.bmp,979395,982570,3175,p,0
210100,17,3,2,4,f,Anna.jpg,pieFS3.bmp,990197,993501,3304,q,1
210100,18,4,1,4,m,Tom.jpg,pieFS4.bmp,1001149,1005088,3939,p,0
210100,19,4,4,16,m,Chris.jpg,pieFS4.bmp,1012703,1015963,3260,q,1
210100,20,4,3,12,f,Liz.jpg,pieFS4.bmp,1023605,1026664,3059,p,0
210100,21,4,3,12,m,Eric.jpg,pieFS4.bmp,1034306,1037205,2899,q,1
210100,22,3,1,2,f,Susan.jpg,pieFS3.bmp,1044841,1047461,2620,q,1
210100,23,4,4,16,f,Michelle.jpg,pieFS4.bmp,1055107,1058861,3754,p,0
210100,24,5,1,9,f,Sandra.jpg,pieFS5.bmp,1066511,1069529,3018,q,1
210100,25,5,1,9,m,Frank.jpg,pieFS5.bmp,1077179,1081004,3825,p,0
210100,26,3,6,14,m,Michael.jpg,pieFS3.bmp,1088633,1091368,2735,q,1
210290,1,4,3,12,m,Tom.jpg,pieFS4.bmp,392785,398789,6004,p,0
210290,2,5,1,9,m,Richard.jpg,pieFS5.bmp,406419,409529,3110,p,0
210290,3,1,8,8,f,Jane.jpg,pieFS1.bmp,417157,420009,2852,q,1
210290,4,3,5,11,f,Susan.jpg,pieFS3.bmp,427629,431509,3880,p,0
210290,5,4,4,16,f,Mary.jpg,pieFS4.bmp,439132,441989,2857,p,0
210290,6,3,3,7,m,Chris.jpg,pieFS3.bmp,449621,452249,2628,p,0
210290,7,5,1,9,f,Sandra.jpg,pieFS5.bmp,459876,462669,2793,p,0
210290,8,3,5,11,m,John.jpg,pieFS3.bmp,470297,472709,2412,p,0
210290,9,4,2,8,f,Anita.jpg,pieFS4.bmp,480336,482729,2393,p,0
210290,10,5,2,18,f,Jessica.jpg,pieFS5.bmp,490358,492529,2171,p,0
210290,11,3,2,4,f,Silvia.jpg,pieFS3.bmp,500147,503889,3742,p,0
210290,12,3,1,2,f,Anna.jpg,pieFS3.bmp,511518,516569,5051,q,1
210290,13,5,2,18,f,Becky.jpg,pieFS5.bmp,524187,526990,2803,p,0
210290,14,2,5,7,f,Laura.jpg,pieFS2.bmp,534608,537930,3322,q,1
210290,15,5,1,9,m,Michael.jpg,pieFS5.bmp,545563,548049,2486,p,0
210290,16,2,5,7,m,Paul.jpg,pieFS2.bmp,555668,557909,2241,q,1
210290,17,3,4,9,f,Michelle.jpg,pieFS3.bmp,565540,569570,4030,p,0
210290,18,4,1,4,f,Liz.jpg,pieFS4.bmp,577194,580010,2816,p,0
210290,19,4,3,12,f,Christina.jpg,pieFS4.bmp,587632,590210,2578,p,0
210290,20,5,2,18,m,David.jpg,pieFS5.bmp,597837,600410,2573,p,0
210290,21,4,4,16,m,Stephan.jpg,pieFS4.bmp,608042,610450,2408,p,0
210290,22,1,9,9,m,Kevin.jpg,pieFS1.bmp,618081,620610,2529,q,1
210290,23,4,1,4,m,Frank.jpg,pieFS4.bmp,628236,631030,2794,p,0
210290,24,2,3,4,m,Eric.jpg,pieFS2.bmp,638658,641730,3072,q,1
210290,25,3,6,14,m,James.jpg,pieFS3.bmp,649363,652430,3067,p,0
210290,26,5,2,18,m,Robert.jpg,pieFS5.bmp,660051,663170,3119,p,0
210374,1,3,2,4,f,Liz.jpg,pieFS3.bmp,595304,598944,3640,q,1
210374,2,5,1,9,f,Silvia.jpg,pieFS5.bmp,606574,611704,5130,q,1
210374,3,2,5,7,m,Robert.jpg,pieFS2.bmp,619360,621964,2604,q,1
210374,4,5,1,9,m,Frank.jpg,pieFS5.bmp,629599,633084,3485,q,1
210374,5,3,4,9,f,Jane.jpg,pieFS3.bmp,640720,643005,2285,q,1
210374,6,5,2,18,m,John.jpg,pieFS5.bmp,650626,653205,2579,q,1
210374,7,5,2,18,m,Kevin.jpg,pieFS5.bmp,660831,662385,1554,q,1
210374,8,3,3,7,m,James.jpg,pieFS3.bmp,670004,671305,1301,q,1
210374,9,3,1,2,f,Jessica.jpg,pieFS3.bmp,678928,680625,1697,q,1
210374,10,4,1,4,f,Anna.jpg,pieFS4.bmp,688251,689985,1734,q,1
210374,11,4,3,12,m,David.jpg,pieFS4.bmp,697607,699026,1419,q,1
210374,12,1,8,8,f,Christina.jpg,pieFS1.bmp,706647,709566,2919,q,1
210374,13,3,6,14,m,Paul.jpg,pieFS3.bmp,717202,718746,1544,q,1
210374,14,1,9,9,m,Stephan.jpg,pieFS1.bmp,726392,728286,1894,q,1
210374,15,4,4,16,m,Tom.jpg,pieFS4.bmp,735931,738446,2515,q,1
210374,16,4,4,16,f,Becky.jpg,pieFS4.bmp,746086,747406,1320,q,1
210374,17,4,1,4,m,Eric.jpg,pieFS4.bmp,755043,756627,1584,q,1
210374,18,2,5,7,f,Michelle.jpg,pieFS2.bmp,764266,765967,1701,q,1
210374,19,2,3,4,m,Richard.jpg,pieFS2.bmp,773606,775507,1901,q,1
210374,20,5,1,9,m,Chris.jpg,pieFS5.bmp,783129,784547,1418,q,1
210374,21,3,5,11,m,Michael.jpg,pieFS3.bmp,792169,793647,1478,q,1
210374,22,5,2,18,f,Sandra.jpg,pieFS5.bmp,801275,802387,1112,q,1
210374,23,5,2,18,f,Susan.jpg,pieFS5.bmp,810015,811088,1073,q,1
210374,24,4,2,8,f,Laura.jpg,pieFS4.bmp,818706,820088,1382,q,1
210374,25,3,5,11,f,Mary.jpg,pieFS3.bmp,827712,829008,1296,q,1
210374,26,4,3,12,f,Anita.jpg,pieFS4.bmp,836636,837608,972,q,1
210626,1,3,1,2,f,Susan.jpg,pieFS3.bmp,461536,466982,5446,p,0
210626,2,5,1,9,f,Becky.jpg,pieFS5.bmp,474629,481671,7042,p,0
210626,3,2,5,7,f,Jane.jpg,pieFS2.bmp,489326,493524,4198,p,0
210626,4,4,1,4,f,Anna.jpg,pieFS4.bmp,501148,505084,3936,p,0
210626,5,5,1,9,m,Robert.jpg,pieFS5.bmp,512736,516775,4039,p,0
210626,6,1,9,9,m,Eric.jpg,pieFS1.bmp,524407,528073,3666,q,1
210626,7,2,3,4,m,Frank.jpg,pieFS2.bmp,535710,538230,2520,p,0
210626,8,3,3,7,m,James.jpg,pieFS3.bmp,545876,548403,2527,p,0
210626,9,4,3,12,m,Tom.jpg,pieFS4.bmp,556059,557797,1738,p,0
210626,10,3,5,11,m,Kevin.jpg,pieFS3.bmp,565440,568263,2823,p,0
210626,11,4,4,16,f,Liz.jpg,pieFS4.bmp,575907,578044,2137,p,0
210626,12,4,1,4,m,David.jpg,pieFS4.bmp,585689,587373,1684,p,0
210626,13,1,8,8,f,Jessica.jpg,pieFS1.bmp,595019,598467,3448,q,1
210626,14,4,2,8,f,Anita.jpg,pieFS4.bmp,606121,608588,2467,p,0
210626,15,2,5,7,m,Stephan.jpg,pieFS2.bmp,616238,620109,3871,q,1
210626,16,5,2,18,f,Michelle.jpg,pieFS5.bmp,627758,629562,1804,p,0
210626,17,3,6,14,m,Michael.jpg,pieFS3.bmp,637205,639782,2577,p,0
210626,18,5,2,18,m,Richard.jpg,pieFS5.bmp,647422,649095,1673,p,0
210626,19,4,3,12,f,Christina.jpg,pieFS4.bmp,656735,660668,3933,p,0
210626,20,5,2,18,m,John.jpg,pieFS5.bmp,668306,669730,1424,p,0
210626,21,3,4,9,f,Sandra.jpg,pieFS3.bmp,677386,678888,1502,p,0
210626,22,3,5,11,f,Laura.jpg,pieFS3.bmp,686532,688451,1919,p,0
210626,23,3,2,4,f,Silvia.jpg,pieFS3.bmp,696096,743808,47712,p,0
210626,24,4,4,16,m,Chris.jpg,pieFS4.bmp,751476,753126,1650,p,0
210626,25,5,1,9,m,Paul.jpg,pieFS5.bmp,760772,763470,2698,p,0
210626,26,5,2,18,f,Mary.jpg,pieFS5.bmp,771123,774127,3004,q,1
210685,1,3,5,11,f,Becky.jpg,pieFS3.bmp,448675,453824,5149,q,1
210685,2,5,2,18,m,Michael.jpg,pieFS5.bmp,461527,467484,5957,q,1
210685,3,4,2,8,f,Liz.jpg,pieFS4.bmp,475195,479664,4469,q,1
210685,4,4,1,4,m,John.jpg,pieFS4.bmp,487365,491064,3699,q,1
210685,5,3,4,9,f,Christina.jpg,pieFS3.bmp,498769,502545,3776,q,1
210685,6,5,1,9,f,Michelle.jpg,pieFS5.bmp,510256,513085,2829,q,1
210685,7,4,3,12,m,Frank.jpg,pieFS4.bmp,520777,523805,3028,q,1
210685,8,5,2,18,f,Mary.jpg,pieFS5.bmp,531499,534305,2806,q,1
210685,9,4,1,4,f,Anna.jpg,pieFS4.bmp,541971,546285,4314,p,0
210685,10,2,5,7,f,Silvia.jpg,pieFS2.bmp,553957,559365,5408,q,1
210685,11,4,3,12,f,Anita.jpg,pieFS4.bmp,567026,569946,2920,q,1
210685,12,1,8,8,f,Laura.jpg,pieFS1.bmp,577614,581105,3491,q,1
210685,13,3,3,7,m,Eric.jpg,pieFS3.bmp,588768,592545,3777,q,1
210685,14,2,5,7,m,David.jpg,pieFS2.bmp,600205,602906,2701,q,1
210685,15,5,1,9,m,James.jpg,pieFS5.bmp,610594,615806,5212,q,1
210685,16,4,4,16,f,Sandra.jpg,pieFS4.bmp,623479,626826,3347,q,1
210685,17,5,1,9,m,Robert.jpg,pieFS5.bmp,634484,637786,3302,q,1
210685,18,3,2,4,f,Jessica.jpg,pieFS3.bmp,645455,652626,7171,q,1
210685,19,5,2,18,m,Stephan.jpg,pieFS5.bmp,660288,664566,4278,p,0
210685,20,1,9,9,m,Richard.jpg,pieFS1.bmp,672275,675427,3152,q,1
210685,21,4,4,16,m,Kevin.jpg,pieFS4.bmp,683113,685927,2814,q,1
210685,22,5,2,18,f,Susan.jpg,pieFS5.bmp,693601,695847,2246,q,1
210685,23,3,5,11,m,Paul.jpg,pieFS3.bmp,703507,705707,2200,q,1
210685,24,3,1,2,f,Jane.jpg,pieFS3.bmp,713412,716487,3075,q,1
210685,25,3,6,14,m,Tom.jpg,pieFS3.bmp,724167,729327,5160,q,1
210685,26,2,3,4,m,Chris.jpg,pieFS2.bmp,737036,739487,2451,q,1
210701,1,4,2,8,f,Anita.jpg,pieFS4.bmp,120077,125020,4943,z,1
210701,2,3,1,2,f,Mary.jpg,pieFS3.bmp,132601,135707,3106,z,1
210701,3,3,3,7,m,Michael.jpg,pieFS3.bmp,143285,145527,2242,z,1
210701,4,5,2,18,m,David.jpg,pieFS5.bmp,153100,155277,2177,z,1
210701,5,1,9,9,m,Stephan.jpg,pieFS1.bmp,162849,164164,1315,z,1
210701,6,5,1,9,m,Frank.jpg,pieFS5.bmp,171744,173220,1476,z,1
210701,7,4,1,4,f,Silvia.jpg,pieFS4.bmp,180807,182088,1281,z,1
210701,8,5,1,9,m,Tom.jpg,pieFS5.bmp,189669,191125,1456,z,1
210701,9,3,6,14,m,Chris.jpg,pieFS3.bmp,198698,200238,1540,z,1
210701,10,3,5,11,f,Anna.jpg,pieFS3.bmp,207811,209200,1389,z,1
210701,11,2,5,7,f,Michelle.jpg,pieFS2.bmp,216774,218185,1411,z,1
210701,12,1,8,8,f,Jane.jpg,pieFS1.bmp,225769,227598,1829,z,1
210701,13,5,1,9,f,Becky.jpg,pieFS5.bmp,235183,237141,1958,z,1
210701,14,4,1,4,m,Kevin.jpg,pieFS4.bmp,244714,245841,1127,z,1
210701,15,5,2,18,f,Laura.jpg,pieFS5.bmp,253426,254634,1208,z,1
210701,16,3,5,11,m,Richard.jpg,pieFS3.bmp,262204,263503,1299,z,1
210701,17,3,2,4,f,Liz.jpg,pieFS3.bmp,271083,272273,1190,z,1
210701,18,4,4,16,f,Jessica.jpg,pieFS4.bmp,279845,281066,1221,z,1
210701,19,5,2,18,m,Paul.jpg,pieFS5.bmp,288640,289636,996,z,1
210701,20,3,4,9,f,Sandra.jpg,pieFS3.bmp,297218,297903,685,z,1
210701,21,2,5,7,m,Eric.jpg,pieFS2.bmp,305478,306434,956,z,1
210701,22,4,4,16,m,John.jpg,pieFS4.bmp,314005,314909,904,z,1
210701,23,4,3,12,m,James.jpg,pieFS4.bmp,322483,323383,900,z,1
210701,24,2,3,4,m,Robert.jpg,pieFS2.bmp,330960,331727,767,z,1
210701,25,4,3,12,f,Susan.jpg,pieFS4.bmp,339304,339957,653,z,1
210701,26,5,2,18,f,Christina.jpg,pieFS5.bmp,347531,348001,470,z,1
211038,1,5,1,9,f,Anna.jpg,pieFS5.bmp,349375,353840,4465,p,0
211038,2,3,6,14,m,Paul.jpg,pieFS3.bmp,361478,370261,8783,q,1
211038,3,2,3,4,m,Robert.jpg,pieFS2.bmp,377910,380801,2891,q,1
211038,4,3,3,7,m,Stephan.jpg,pieFS3.bmp,388448,392121,3673,q,1
211038,5,4,4,16,f,Michelle.jpg,pieFS4.bmp,399769,401821,2052,p,0
211038,6,2,5,7,m,Michael.jpg,pieFS2.bmp,409441,412021,2580,q,1
211038,7,5,2,18,m,David.jpg,pieFS5.bmp,419647,421981,2334,p,0
211038,8,4,1,4,f,Mary.jpg,pieFS4.bmp,429619,434021,4402,p,0
211038,9,4,2,8,f,Christina.jpg,pieFS4.bmp,441639,446661,5022,q,1
211038,10,5,2,18,f,Laura.jpg,pieFS5.bmp,454291,456322,2031,p,0
211038,11,1,9,9,m,Tom.jpg,pieFS1.bmp,463947,466002,2055,q,1
211038,12,3,2,4,f,Susan.jpg,pieFS3.bmp,473620,476302,2682,q,1
211038,13,5,2,18,f,Jane.jpg,pieFS5.bmp,483925,486042,2117,p,0
211038,14,4,4,16,m,Frank.jpg,pieFS4.bmp,493664,497902,4238,q,1
211038,15,3,5,11,f,Jessica.jpg,pieFS3.bmp,505551,508802,3251,q,1
211038,16,3,4,9,f,Becky.jpg,pieFS3.bmp,516439,521522,5083,q,1
211038,17,5,1,9,m,Richard.jpg,pieFS5.bmp,529174,531262,2088,p,0
211038,18,5,1,9,m,Chris.jpg,pieFS5.bmp,538897,540842,1945,p,0
211038,19,2,5,7,f,Anita.jpg,pieFS2.bmp,548469,550903,2434,q,1
211038,20,3,1,2,f,Silvia.jpg,pieFS3.bmp,558541,561263,2722,q,1
211038,21,4,1,4,m,Kevin.jpg,pieFS4.bmp,568897,571503,2606,p,0
211038,22,3,5,11,m,John.jpg,pieFS3.bmp,579152,581863,2711,q,1
211038,23,1,8,8,f,Sandra.jpg,pieFS1.bmp,589490,591503,2013,q,1
211038,24,5,2,18,m,James.jpg,pieFS5.bmp,599129,601343,2214,p,0
211038,25,4,3,12,f,Liz.jpg,pieFS4.bmp,608985,613243,4258,q,1
211038,26,4,3,12,m,Eric.jpg,pieFS4.bmp,620872,624623,3751,q,1
211253,1,5,1,9,m,John.jpg,pieFS5.bmp,140390,147949,7559,m,0
211253,2,3,5,11,m,Michael.jpg,pieFS3.bmp,155523,160622,5099,m,0
211253,3,3,2,4,f,Liz.jpg,pieFS3.bmp,168197,170891,2694,z,1
211253,4,1,9,9,m,Chris.jpg,pieFS1.bmp,178464,180892,2428,z,1
211253,5,2,5,7,m,Eric.jpg,pieFS2.bmp,188463,190330,1867,z,1
211253,6,4,2,8,f,Becky.jpg,pieFS4.bmp,197910,203643,5733,m,0
211253,7,2,3,4,m,Stephan.jpg,pieFS2.bmp,211220,212565,1345,z,1
211253,8,1,8,8,f,Christina.jpg,pieFS1.bmp,220149,221838,1689,z,1
211253,9,4,1,4,m,Kevin.jpg,pieFS4.bmp,229412,231254,1842,m,0
211253,10,3,3,7,m,Frank.jpg,pieFS3.bmp,238826,240238,1412,z,1
211253,11,3,5,11,f,Michelle.jpg,pieFS3.bmp,247822,249317,1495,z,1
211253,12,5,1,9,f,Anita.jpg,pieFS5.bmp,256902,260552,3650,z,1
211253,13,4,4,16,m,David.jpg,pieFS4.bmp,268138,271537,3399,z,1
211253,14,2,5,7,f,Laura.jpg,pieFS2.bmp,279124,280861,1737,z,1
211253,15,5,2,18,f,Anna.jpg,pieFS5.bmp,288437,291585,3148,m,0
211253,16,4,1,4,f,Sandra.jpg,pieFS4.bmp,299172,300664,1492,z,1
211253,17,4,3,12,f,Silvia.jpg,pieFS4.bmp,308235,309242,1007,z,1
211253,18,3,4,9,f,Jessica.jpg,pieFS3.bmp,316813,317977,1164,z,1
211253,19,3,1,2,f,Mary.jpg,pieFS3.bmp,325558,328181,2623,z,1
211253,20,4,4,16,f,Susan.jpg,pieFS4.bmp,335757,338234,2477,m,0
211253,21,4,3,12,m,Richard.jpg,pieFS4.bmp,345807,348228,2421,z,1
211253,22,3,6,14,m,Paul.jpg,pieFS3.bmp,355806,357260,1454,z,1
211253,23,5,1,9,m,Tom.jpg,pieFS5.bmp,364835,368636,3801,m,0
211253,24,5,2,18,m,Robert.jpg,pieFS5.bmp,376222,378277,2055,m,0
211253,25,5,2,18,m,James.jpg,pieFS5.bmp,385853,387449,1596,m,0
211253,26,5,2,18,f,Jane.jpg,pieFS5.bmp,395033,396225,1192,m,0
211669,1,3,3,7,m,David.jpg,pieFS3.bmp,280573,286086,5513,p,0
211669,2,5,2,18,f,Becky.jpg,pieFS5.bmp,293808,297426,3618,p,0
211669,3,2,3,4,m,Kevin.jpg,pieFS2.bmp,305162,307606,2444,q,1
211669,4,4,4,16,m,James.jpg,pieFS4.bmp,315334,319386,4052,q,1
211669,5,3,5,11,f,Mary.jpg,pieFS3.bmp,327105,330226,3121,q,1
211669,6,3,1,2,f,Liz.jpg,pieFS3.bmp,337926,340566,2640,q,1
211669,7,5,2,18,m,Robert.jpg,pieFS5.bmp,348264,350167,1903,p,0
211669,8,4,1,4,f,Sandra.jpg,pieFS4.bmp,357870,361267,3397,p,0
211669,9,2,5,7,f,Anna.jpg,pieFS2.bmp,368941,370647,1706,q,1
211669,10,5,1,9,m,Richard.jpg,pieFS5.bmp,378331,380167,1836,p,0
211669,11,4,3,12,f,Jessica.jpg,pieFS4.bmp,387870,391127,3257,q,1
211669,12,5,1,9,m,Chris.jpg,pieFS5.bmp,398808,400427,1619,p,0
211669,13,1,8,8,f,Silvia.jpg,pieFS1.bmp,408097,410067,1970,q,1
211669,14,2,5,7,m,Paul.jpg,pieFS2.bmp,417753,419287,1534,q,1
211669,15,4,4,16,f,Michelle.jpg,pieFS4.bmp,426960,429648,2688,p,0
211669,16,1,9,9,m,John.jpg,pieFS1.bmp,437348,438688,1340,q,1
211669,17,5,2,18,f,Jane.jpg,pieFS5.bmp,446388,447868,1480,p,0
211669,18,3,4,9,f,Laura.jpg,pieFS3.bmp,455561,457408,1847,q,1
211669,19,4,1,4,m,Stephan.jpg,pieFS4.bmp,465084,467868,2784,q,1
211669,20,4,2,8,f,Susan.jpg,pieFS4.bmp,475572,477708,2136,p,0
211669,21,3,5,11,m,Tom.jpg,pieFS3.bmp,485411,486828,1417,q,1
211669,22,3,2,4,f,Christina.jpg,pieFS3.bmp,494534,496108,1574,q,1
211669,23,4,3,12,m,Frank.jpg,pieFS4.bmp,503807,506089,2282,q,1
211669,24,5,2,18,m,Michael.jpg,pieFS5.bmp,513796,515529,1733,p,0
211669,25,5,1,9,f,Anita.jpg,pieFS5.bmp,523235,525089,1854,p,0
211669,26,3,6,14,m,Eric.jpg,pieFS3.bmp,532791,534649,1858,q,1
212019,1,5,2,18,f,Silvia.jpg,pieFS5.bmp,112869,116577,3708,z,1
212019,2,2,5,7,m,John.jpg,pieFS2.bmp,124156,126533,2377,z,1
212019,3,4,3,12,f,Mary.jpg,pieFS4.bmp,134105,138195,4090,m,0
212019,4,5,2,18,m,David.jpg,pieFS5.bmp,145776,148225,2449,m,0
212019,5,5,1,9,m,Stephan.jpg,pieFS5.bmp,155809,158069,2260,m,0
212019,6,2,3,4,m,Tom.jpg,pieFS2.bmp,165640,168175,2535,z,1
212019,7,5,1,9,f,Jane.jpg,pieFS5.bmp,175757,177587,1830,m,0
212019,8,3,6,14,m,Richard.jpg,pieFS3.bmp,185170,187299,2129,z,1
212019,9,4,4,16,f,Becky.jpg,pieFS4.bmp,194885,197067,2182,z,1
212019,10,4,1,4,m,James.jpg,pieFS4.bmp,204650,207230,2580,z,1
212019,11,3,5,11,f,Sandra.jpg,pieFS3.bmp,214800,216304,1504,z,1
212019,12,3,3,7,m,Kevin.jpg,pieFS3.bmp,223879,225229,1350,z,1
212019,13,4,2,8,f,Jessica.jpg,pieFS4.bmp,232808,234904,2096,m,0
212019,14,3,4,9,f,Anita.jpg,pieFS3.bmp,242490,243847,1357,z,1
212019,15,5,2,18,f,Christina.jpg,pieFS5.bmp,251419,253009,1590,m,0
212019,16,3,1,2,f,Anna.jpg,pieFS3.bmp,260582,263234,2652,z,1
212019,17,5,1,9,m,Robert.jpg,pieFS5.bmp,270815,273396,2581,m,0
212019,18,4,3,12,m,Paul.jpg,pieFS4.bmp,280981,283073,2092,m,0
212019,19,2,5,7,f,Liz.jpg,pieFS2.bmp,290646,292027,1381,z,1
212019,20,1,9,9,m,Chris.jpg,pieFS1.bmp,299608,301820,2212,z,1
212019,21,4,1,4,f,Michelle.jpg,pieFS4.bmp,309390,312903,3513,z,1
212019,22,1,8,8,f,Laura.jpg,pieFS1.bmp,320476,321901,1425,z,1
212019,23,3,5,11,m,Eric.jpg,pieFS3.bmp,329472,331032,1560,z,1
212019,24,4,4,16,m,Michael.jpg,pieFS4.bmp,338601,341062,2461,m,0
212019,25,3,2,4,f,Susan.jpg,pieFS3.bmp,348634,350812,2178,z,1
212019,26,5,2,18,m,Frank.jpg,pieFS5.bmp,358382,360843,2461,m,0
212179,1,4,3,12,m,Frank.jpg,pieFS4.bmp,551104,558323,7219,q,1
212179,2,4,4,16,f,Becky.jpg,pieFS4.bmp,565955,569683,3728,p,0
212179,3,5,2,18,f,Anna.jpg,pieFS5.bmp,577309,580383,3074,q,1
212179,4,1,8,8,f,Silvia.jpg,pieFS1.bmp,588013,590723,2710,q,1
212179,5,5,1,9,f,Jane.jpg,pieFS5.bmp,598352,600923,2571,p,0
212179,6,2,3,4,m,John.jpg,pieFS2.bmp,608557,611823,3266,q,1
212179,7,4,3,12,f,Laura.jpg,pieFS4.bmp,619462,623204,3742,q,1
212179,8,3,5,11,m,James.jpg,pieFS3.bmp,630833,635024,4191,q,1
212179,9,2,5,7,f,Michelle.jpg,pieFS2.bmp,642653,645944,3291,q,1
212179,10,3,2,4,f,Mary.jpg,pieFS3.bmp,653574,655904,2330,q,1
212179,11,5,1,9,m,Chris.jpg,pieFS5.bmp,663546,666024,2478,p,0
212179,12,5,1,9,m,Eric.jpg,pieFS5.bmp,673652,678565,4913,p,0
212179,13,5,2,18,m,Tom.jpg,pieFS5.bmp,686204,688365,2161,p,0
212179,14,3,1,2,f,Anita.jpg,pieFS3.bmp,695994,698325,2331,q,1
212179,15,3,6,14,m,Richard.jpg,pieFS3.bmp,705966,708585,2619,q,1
212179,16,4,1,4,m,Kevin.jpg,pieFS4.bmp,716221,718885,2664,q,1
212179,17,4,1,4,f,Jessica.jpg,pieFS4.bmp,726526,729306,2780,q,1
212179,18,2,5,7,m,Stephan.jpg,pieFS2.bmp,736932,739026,2094,q,1
212179,19,5,2,18,m,Robert.jpg,pieFS5.bmp,746654,749166,2512,p,0
212179,20,4,2,8,f,Susan.jpg,pieFS4.bmp,756793,758846,2053,q,1
212179,21,3,3,7,m,Michael.jpg,pieFS3.bmp,766465,768786,2321,q,1
212179,22,1,9,9,m,Paul.jpg,pieFS1.bmp,776404,778627,2223,q,1
212179,23,5,2,18,f,Liz.jpg,pieFS5.bmp,786260,791607,5347,p,0
212179,24,3,5,11,f,Christina.jpg,pieFS3.bmp,799229,801387,2158,q,1
212179,25,4,4,16,m,David.jpg,pieFS4.bmp,809018,814347,5329,q,1
212179,26,3,4,9,f,Sandra.jpg,pieFS3.bmp,821970,824747,2777,q,1
212556,1,3,1,2,f,Michelle.jpg,pieFS3.bmp,148736,156335,7599,z,1
212556,2,2,5,7,f,Jessica.jpg,pieFS2.bmp,163919,170505,6586,m,0
212556,3,1,8,8,f,Susan.jpg,pieFS1.bmp,178081,181740,3659,z,1
212556,4,3,2,4,f,Anna.jpg,pieFS3.bmp,189318,194527,5209,z,1
212556,5,3,5,11,f,Liz.jpg,pieFS3.bmp,202109,208795,6686,m,0
212556,6,3,4,9,f,Christina.jpg,pieFS3.bmp,216372,221564,5192,m,0
212556,7,3,6,14,m,Frank.jpg,pieFS3.bmp,229147,234590,5443,z,1
212556,8,3,3,7,m,Robert.jpg,pieFS3.bmp,242173,244926,2753,z,1
212556,9,4,2,8,f,Anita.jpg,pieFS4.bmp,252506,257244,4738,m,0
212556,10,5,1,9,m,David.jpg,pieFS5.bmp,264829,269656,4827,z,1
212556,11,2,5,7,m,Richard.jpg,pieFS2.bmp,277236,280249,3013,z,1
212556,12,5,2,18,f,Laura.jpg,pieFS5.bmp,287821,300705,12884,z,1
212556,13,3,5,11,m,Chris.jpg,pieFS3.bmp,308287,313585,5298,z,1
212556,14,4,4,16,f,Becky.jpg,pieFS4.bmp,321162,322698,1536,z,1
212556,15,4,1,4,m,Kevin.jpg,pieFS4.bmp,330275,334791,4516,m,0
212556,16,4,1,4,f,Silvia.jpg,pieFS4.bmp,342364,344991,2627,m,0
212556,17,4,4,16,m,Michael.jpg,pieFS4.bmp,352564,355692,3128,m,0
212556,18,5,2,18,m,Eric.jpg,pieFS5.bmp,363265,364809,1544,m,0
212556,19,2,3,4,m,Paul.jpg,pieFS2.bmp,372395,373245,850,m,0
212556,20,1,9,9,m,Tom.jpg,pieFS1.bmp,380822,383765,2943,z,1
212556,21,5,2,18,m,John.jpg,pieFS5.bmp,391340,396720,5380,z,1
212556,22,4,3,12,f,Mary.jpg,pieFS4.bmp,404298,407309,3011,z,1
212556,23,5,1,9,m,Stephan.jpg,pieFS5.bmp,414883,414902,19,z,1
212556,24,5,2,18,f,Jane.jpg,pieFS5.bmp,422474,425444,2970,z,1
212556,25,5,1,9,f,Sandra.jpg,pieFS5.bmp,433025,434931,1906,m,0
212556,26,4,3,12,m,James.jpg,pieFS4.bmp,442506,445412,2906,m,0
212794,1,5,1,9,m,Tom.jpg,pieFS5.bmp,157341,159740,2399,m,0
212794,2,2,3,4,m,Michael.jpg,pieFS2.bmp,167324,169283,1959,z,1
212794,3,3,5,11,f,Jane.jpg,pieFS3.bmp,176871,178846,1975,z,1
212794,4,5,2,18,f,Anna.jpg,pieFS5.bmp,186419,188464,2045,m,0
212794,5,2,5,7,f,Liz.jpg,pieFS2.bmp,196050,197989,1939,z,1
212794,6,3,3,7,m,James.jpg,pieFS3.bmp,205564,207270,1706,z,1
212794,7,3,6,14,m,Kevin.jpg,pieFS3.bmp,214844,216719,1875,z,1
212794,8,5,2,18,f,Christina.jpg,pieFS5.bmp,224292,226244,1952,m,0
212794,9,4,4,16,m,John.jpg,pieFS4.bmp,233823,235431,1608,z,1
212794,10,1,9,9,m,Paul.jpg,pieFS1.bmp,243002,245237,2235,z,1
212794,11,2,5,7,m,Chris.jpg,pieFS2.bmp,252817,254574,1757,z,1
212794,12,4,4,16,f,Sandra.jpg,pieFS4.bmp,262148,263518,1370,z,1
212794,13,3,5,11,m,Robert.jpg,pieFS3.bmp,271093,272536,1443,z,1
212794,14,5,1,9,f,Michelle.jpg,pieFS5.bmp,280106,282098,1992,m,0
212794,15,5,2,18,m,Eric.jpg,pieFS5.bmp,289670,291248,1578,m,0
212794,16,3,4,9,f,Silvia.jpg,pieFS3.bmp,298833,300642,1809,z,1
212794,17,3,1,2,f,Becky.jpg,pieFS3.bmp,308214,310185,1971,z,1
212794,18,5,1,9,m,Frank.jpg,pieFS5.bmp,317761,319597,1836,m,0
212794,19,3,2,4,f,Laura.jpg,pieFS3.bmp,327175,328987,1812,z,1
212794,20,4,3,12,m,David.jpg,pieFS4.bmp,336572,339021,2449,z,1
212794,21,4,3,12,f,Anita.jpg,pieFS4.bmp,346605,348433,1828,z,1
212794,22,4,1,4,f,Mary.jpg,pieFS4.bmp,356019,358052,2033,z,1
212794,23,1,8,8,f,Susan.jpg,pieFS1.bmp,365633,367745,2112,z,1
212794,24,4,2,8,f,Jessica.jpg,pieFS4.bmp,375315,376951,1636,z,1
212794,25,5,2,18,m,Stephan.jpg,pieFS5.bmp,384528,386326,1798,m,0
212794,26,4,1,4,m,Richard.jpg,pieFS4.bmp,393908,395832,1924,z,1
212856,1,4,1,4,m,Eric.jpg,pieFS4.bmp,3139309,3147116,7807,q,1
212856,2,2,3,4,m,Robert.jpg,pieFS2.bmp,3154742,3158456,3714,q,1
212856,3,5,2,18,f,Becky.jpg,pieFS5.bmp,3166080,3171576,5496,q,1
212856,4,5,1,9,m,Kevin.jpg,pieFS5.bmp,3179198,3183557,4359,q,1
212856,5,3,5,11,m,Tom.jpg,pieFS3.bmp,3191185,3193897,2712,q,1
212856,6,4,1,4,f,Liz.jpg,pieFS4.bmp,3201523,3204157,2634,q,1
212856,7,4,2,8,f,Mary.jpg,pieFS4.bmp,3211778,3214417,2639,q,1
212856,8,2,5,7,m,Frank.jpg,pieFS2.bmp,3222050,3224637,2587,q,1
212856,9,5,1,9,f,Anita.jpg,pieFS5.bmp,3232272,3234677,2405,q,1
212856,10,4,4,16,f,Jane.jpg,pieFS4.bmp,3242311,3244257,1946,q,1
212856,11,4,4,16,m,Stephan.jpg,pieFS4.bmp,3251884,3253617,1733,q,1
212856,12,1,9,9,m,Paul.jpg,pieFS1.bmp,3261240,3263717,2477,q,1
212856,13,1,8,8,f,Silvia.jpg,pieFS1.bmp,3271345,3273278,1933,q,1
212856,14,4,3,12,f,Michelle.jpg,pieFS4.bmp,3280901,3283138,2237,q,1
212856,15,2,5,7,f,Laura.jpg,pieFS2.bmp,3290757,3292638,1881,q,1
212856,16,3,6,14,m,David.jpg,pieFS3.bmp,3300263,3304878,4615,q,1
212856,17,5,1,9,m,Richard.jpg,pieFS5.bmp,3312499,3314878,2379,q,1
212856,18,5,2,18,m,Chris.jpg,pieFS5.bmp,3322505,3325458,2953,q,1
212856,19,5,2,18,m,John.jpg,pieFS5.bmp,3333076,3334938,1862,q,1
212856,20,3,1,2,f,Susan.jpg,pieFS3.bmp,3342566,3344678,2112,q,1
212856,21,3,5,11,f,Sandra.jpg,pieFS3.bmp,3352305,3353878,1573,q,1
212856,22,3,2,4,f,Anna.jpg,pieFS3.bmp,3361511,3363038,1527,q,1
212856,23,5,2,18,f,Christina.jpg,pieFS5.bmp,3370668,3372679,2011,q,1
212856,24,4,3,12,m,James.jpg,pieFS4.bmp,3380307,3382659,2352,q,1
212856,25,3,3,7,m,Michael.jpg,pieFS3.bmp,3390279,3392059,1780,q,1
212856,26,3,4,9,f,Jessica.jpg,pieFS3.bmp,3399685,3402199,2514,q,1
212857,1,3,3,7,m,James.jpg,pieFS3.bmp,240820,243024,2204,q,1
212857,2,1,8,8,f,Silvia.jpg,pieFS1.bmp,250676,252424,1748,q,1
212857,3,3,4,9,f,Mary.jpg,pieFS3.bmp,260049,262065,2016,q,1
212857,4,4,1,4,m,Richard.jpg,pieFS4.bmp,269705,271785,2080,p,0
212857,5,3,5,11,f,Sandra.jpg,pieFS3.bmp,279428,281125,1697,q,1
212857,6,4,1,4,f,Christina.jpg,pieFS4.bmp,288751,290545,1794,q,1
212857,7,4,3,12,m,Kevin.jpg,pieFS4.bmp,298174,299665,1491,q,1
212857,8,5,1,9,f,Jessica.jpg,pieFS5.bmp,307297,308926,1629,q,1
212857,9,3,5,11,m,Michael.jpg,pieFS3.bmp,316570,318186,1616,q,1
212857,10,2,5,7,f,Susan.jpg,pieFS2.bmp,325810,327466,1656,q,1
212857,11,5,2,18,f,Anita.jpg,pieFS5.bmp,335100,336627,1527,q,1
212857,12,4,3,12,f,Liz.jpg,pieFS4.bmp,344256,345687,1431,q,1
212857,13,4,4,16,f,Michelle.jpg,pieFS4.bmp,353313,354347,1034,q,1
212857,14,2,5,7,m,Robert.jpg,pieFS2.bmp,361970,362927,957,q,1
212857,15,2,3,4,m,Eric.jpg,pieFS2.bmp,370577,372007,1430,q,1
212857,16,5,2,18,m,Frank.jpg,pieFS5.bmp,379684,380848,1164,q,1
212857,17,5,2,18,m,Paul.jpg,pieFS5.bmp,388524,389528,1004,q,1
212857,18,5,1,9,m,Stephan.jpg,pieFS5.bmp,397215,398588,1373,q,1
212857,19,4,2,8,f,Anna.jpg,pieFS4.bmp,406238,407108,870,q,1
212857,20,3,6,14,m,John.jpg,pieFS3.bmp,414779,416169,1390,q,1
212857,21,1,9,9,m,Tom.jpg,pieFS1.bmp,423835,425329,1494,q,1
212857,22,3,2,4,f,Jane.jpg,pieFS3.bmp,433009,434049,1040,q,1
212857,23,5,1,9,m,Chris.jpg,pieFS5.bmp,441716,442729,1013,q,1
212857,24,3,1,2,f,Becky.jpg,pieFS3.bmp,450406,451389,983,q,1
212857,25,4,4,16,m,David.jpg,pieFS4.bmp,459063,460050,987,q,1
212857,26,5,2,18,f,Laura.jpg,pieFS5.bmp,467737,468610,873,q,1
213163,1,4,2,8,f,Laura.jpg,pieFS4.bmp,680996,683346,2350,q,1
213163,2,5,2,18,f,Sandra.jpg,pieFS5.bmp,690985,693106,2121,q,1
213163,3,4,4,16,f,Christina.jpg,pieFS4.bmp,700741,702687,1946,q,1
213163,4,4,3,12,f,Becky.jpg,pieFS4.bmp,710314,711987,1673,q,1
213163,5,4,3,12,m,Eric.jpg,pieFS4.bmp,719620,721387,1767,q,1
213163,6,3,4,9,f,Liz.jpg,pieFS3.bmp,729010,730728,1718,q,1
213163,7,1,8,8,f,Susan.jpg,pieFS1.bmp,738349,740388,2039,q,1
213163,8,3,3,7,m,Kevin.jpg,pieFS3.bmp,748039,749648,1609,q,1
213163,9,5,2,18,m,Richard.jpg,pieFS5.bmp,757279,760128,2849,q,1
213163,10,3,6,14,m,Michael.jpg,pieFS3.bmp,767750,769268,1518,q,1
213163,11,5,1,9,m,Frank.jpg,pieFS5.bmp,776890,778549,1659,q,1
213163,12,5,1,9,m,Tom.jpg,pieFS5.bmp,786180,788149,1969,q,1
213163,13,4,1,4,m,Robert.jpg,pieFS4.bmp,795770,797549,1779,q,1
213163,14,2,5,7,f,Anna.jpg,pieFS2.bmp,805176,807369,2193,q,1
213163,15,2,5,7,m,Chris.jpg,pieFS2.bmp,814998,816750,1752,q,1
213163,16,2,3,4,m,James.jpg,pieFS2.bmp,824371,826270,1899,q,1
213163,17,4,4,16,m,Stephan.jpg,pieFS4.bmp,833894,838370,4476,p,0
213163,18,5,1,9,f,Anita.jpg,pieFS5.bmp,845997,854390,8393,p,0
213163,19,3,1,2,f,Jessica.jpg,pieFS3.bmp,862013,863631,1618,q,1
213163,20,3,5,11,f,Mary.jpg,pieFS3.bmp,871253,873211,1958,q,1
213163,21,5,2,18,f,Jane.jpg,pieFS5.bmp,880842,887871,7029,p,0
213163,22,3,2,4,f,Michelle.jpg,pieFS3.bmp,895493,896992,1499,q,1
213163,23,1,9,9,m,David.jpg,pieFS1.bmp,904616,907352,2736,q,1
213163,24,4,1,4,f,Silvia.jpg,pieFS4.bmp,914971,916532,1561,q,1
213163,25,5,2,18,m,Paul.jpg,pieFS5.bmp,924161,935153,10992,p,0
213163,26,3,5,11,m,John.jpg,pieFS3.bmp,942774,944213,1439,q,1
213704,1,1,8,8,f,Jessica.jpg,pieFS1.bmp,336032,337683,1651,z,1
213704,2,5,2,18,m,Tom.jpg,pieFS5.bmp,345262,346983,1721,m,0
213704,3,4,1,4,f,Michelle.jpg,pieFS4.bmp,354559,355931,1372,z,1
213704,4,2,5,7,f,Sandra.jpg,pieFS2.bmp,363504,364537,1033,z,1
213704,5,3,5,11,m,Richard.jpg,pieFS3.bmp,372116,373612,1496,z,1
213704,6,5,1,9,m,Michael.jpg,pieFS5.bmp,381195,383586,2391,z,1
213704,7,4,3,12,m,Frank.jpg,pieFS4.bmp,391161,392568,1407,z,1
213704,8,5,2,18,f,Susan.jpg,pieFS5.bmp,400140,402725,2585,z,1
213704,9,5,1,9,m,Chris.jpg,pieFS5.bmp,410306,411912,1606,z,1
213704,10,3,4,9,f,Mary.jpg,pieFS3.bmp,419486,420578,1092,z,1
213704,11,1,9,9,m,Paul.jpg,pieFS1.bmp,428164,429260,1096,z,1
213704,12,4,3,12,f,Silvia.jpg,pieFS4.bmp,436842,437679,837,z,1
213704,13,3,5,11,f,Liz.jpg,pieFS3.bmp,445253,445759,506,z,1
213704,14,5,2,18,f,Anita.jpg,pieFS5.bmp,453346,454066,720,z,1
213704,15,3,1,2,f,Laura.jpg,pieFS3.bmp,461639,462854,1215,z,1
213704,16,3,2,4,f,Christina.jpg,pieFS3.bmp,470434,471479,1045,z,1
213704,17,3,6,14,m,John.jpg,pieFS3.bmp,479062,480314,1252,z,1
213704,18,5,1,9,f,Jane.jpg,pieFS5.bmp,487891,488977,1086,z,1
213704,19,2,5,7,m,Eric.jpg,pieFS2.bmp,496552,497508,956,z,1
213704,20,4,4,16,f,Anna.jpg,pieFS4.bmp,505080,505907,827,z,1
213704,21,2,3,4,m,David.jpg,pieFS2.bmp,513491,514307,816,z,1
213704,22,5,2,18,m,Kevin.jpg,pieFS5.bmp,521885,522739,854,z,1
213704,23,4,2,8,f,Becky.jpg,pieFS4.bmp,530312,531027,715,z,1
213704,24,3,3,7,m,Robert.jpg,pieFS3.bmp,538606,539225,619,z,1
213704,25,4,4,16,m,Stephan.jpg,pieFS4.bmp,546799,548094,1295,z,1
213704,26,4,1,4,m,James.jpg,pieFS4.bmp,555678,556174,496,z,1
215763,1,2,5,7,f,Liz.jpg,pieFS2.bmp,153960,162241,8281,q,1
215763,2,5,1,9,f,Mary.jpg,pieFS5.bmp,169859,178461,8602,p,0
215763,3,1,8,8,f,Sandra.jpg,pieFS1.bmp,186092,192942,6850,q,1
215763,4,4,2,8,f,Jessica.jpg,pieFS4.bmp,200576,204702,4126,q,1
215763,5,5,1,9,m,Eric.jpg,pieFS5.bmp,212329,219682,7353,p,0
215763,6,3,1,2,f,Susan.jpg,pieFS3.bmp,227313,233703,6390,q,1
215763,7,4,4,16,f,Christina.jpg,pieFS4.bmp,241331,250223,8892,p,0
215763,8,5,2,18,m,Chris.jpg,pieFS5.bmp,257846,263143,5297,q,1
215763,9,4,3,12,m,Robert.jpg,pieFS4.bmp,270765,274844,4079,q,1
215763,10,1,9,9,m,Stephan.jpg,pieFS1.bmp,282469,289084,6615,q,1
215763,11,5,2,18,f,Anita.jpg,pieFS5.bmp,296720,302004,5284,p,0
215763,12,3,5,11,m,Kevin.jpg,pieFS3.bmp,309622,313885,4263,q,1
215763,13,2,3,4,m,James.jpg,pieFS2.bmp,321509,325385,3876,q,1
215763,14,3,4,9,f,Michelle.jpg,pieFS3.bmp,333013,336285,3272,q,1
215763,15,3,2,4,f,Silvia.jpg,pieFS3.bmp,343918,349986,6068,p,0
215763,16,4,1,4,f,Laura.jpg,pieFS4.bmp,357619,361686,4067,p,0
215763,17,5,1,9,m,Richard.jpg,pieFS5.bmp,369306,373346,4040,p,0
215763,18,2,5,7,m,Michael.jpg,pieFS2.bmp,380977,385967,4990,q,1
215763,19,3,3,7,m,Frank.jpg,pieFS3.bmp,393596,396327,2731,q,1
215763,20,4,3,12,f,Becky.jpg,pieFS4.bmp,403951,408407,4456,p,0
215763,21,3,6,14,m,John.jpg,pieFS3.bmp,416038,418387,2349,q,1
215763,22,5,2,18,m,Tom.jpg,pieFS5.bmp,426011,430688,4677,q,1
215763,23,3,5,11,f,Jane.jpg,pieFS3.bmp,438314,441408,3094,q,1
215763,24,4,1,4,m,Paul.jpg,pieFS4.bmp,449035,452368,3333,q,1
215763,25,5,2,18,f,Anna.jpg,pieFS5.bmp,459990,463249,3259,p,0
215763,26,4,4,16,m,David.jpg,pieFS4.bmp,470878,475409,4531,p,0
216011,1,4,3,12,m,Chris.jpg,pieFS4.bmp,667338,672568,5230,q,1
216011,2,2,3,4,m,Tom.jpg,pieFS2.bmp,680224,682569,2345,q,1
216011,3,2,5,7,m,Kevin.jpg,pieFS2.bmp,690196,692129,1933,q,1
216011,4,1,9,9,m,John.jpg,pieFS1.bmp,699785,701909,2124,q,1
216011,5,3,4,9,f,Jessica.jpg,pieFS3.bmp,709541,711429,1888,q,1
216011,6,2,5,7,f,Laura.jpg,pieFS2.bmp,719047,720329,1282,q,1
216011,7,5,1,9,m,Paul.jpg,pieFS5.bmp,727954,729769,1815,q,1
216011,8,3,6,14,m,Michael.jpg,pieFS3.bmp,737394,739130,1736,q,1
216011,9,4,3,12,f,Jane.jpg,pieFS4.bmp,746750,748290,1540,q,1
216011,10,3,3,7,m,David.jpg,pieFS3.bmp,755923,757270,1347,q,1
216011,11,5,2,18,m,Frank.jpg,pieFS5.bmp,764896,766370,1474,q,1
216011,12,3,5,11,m,Robert.jpg,pieFS3.bmp,774003,775650,1647,q,1
216011,13,1,8,8,f,Christina.jpg,pieFS1.bmp,783276,784710,1434,q,1
216011,14,3,2,4,f,Mary.jpg,pieFS3.bmp,792333,793531,1198,q,1
216011,15,5,2,18,m,James.jpg,pieFS5.bmp,801156,802651,1495,q,1
216011,16,4,2,8,f,Silvia.jpg,pieFS4.bmp,810279,811711,1432,q,1
216011,17,5,1,9,f,Anna.jpg,pieFS5.bmp,819336,820711,1375,q,1
216011,18,4,4,16,f,Sandra.jpg,pieFS4.bmp,828343,829771,1428,q,1
216011,19,5,1,9,m,Richard.jpg,pieFS5.bmp,837399,838791,1392,q,1
216011,20,3,5,11,f,Becky.jpg,pieFS3.bmp,846423,847672,1249,q,1
216011,21,4,1,4,f,Susan.jpg,pieFS4.bmp,855296,856792,1496,q,1
216011,22,5,2,18,f,Liz.jpg,pieFS5.bmp,864419,865692,1273,q,1
216011,23,4,1,4,m,Stephan.jpg,pieFS4.bmp,873309,874472,1163,q,1
216011,24,3,1,2,f,Michelle.jpg,pieFS3.bmp,882100,883432,1332,q,1
216011,25,4,4,16,m,Eric.jpg,pieFS4.bmp,891056,892572,1516,q,1
216011,26,5,2,18,f,Anita.jpg,pieFS5.bmp,900196,902053,1857,q,1
216806,1,3,2,4,f,Silvia.jpg,pieFS3.bmp,129793,132420,2627,p,0
216806,2,4,4,16,m,Michael.jpg,pieFS4.bmp,140131,142580,2449,p,0
216806,3,5,2,18,f,Jessica.jpg,pieFS5.bmp,150286,153780,3494,p,0
216806,4,2,5,7,m,Frank.jpg,pieFS2.bmp,161490,162800,1310,q,1
216806,5,4,3,12,m,Paul.jpg,pieFS4.bmp,170497,172740,2243,q,1
216806,6,1,8,8,f,Anna.jpg,pieFS1.bmp,180419,181980,1561,q,1
216806,7,3,4,9,f,Becky.jpg,pieFS3.bmp,189692,191520,1828,q,1
216806,8,3,5,11,f,Sandra.jpg,pieFS3.bmp,199231,201020,1789,q,1
216806,9,5,2,18,m,James.jpg,pieFS5.bmp,208720,210079,1359,p,0
216806,10,4,2,8,f,Susan.jpg,pieFS4.bmp,217777,219980,2203,q,1
216806,11,4,1,4,m,Robert.jpg,pieFS4.bmp,227682,230560,2878,p,0
216806,12,3,5,11,m,David.jpg,pieFS3.bmp,238270,239900,1630,q,1
216806,13,5,1,9,m,Richard.jpg,pieFS5.bmp,247609,249419,1810,p,0
216806,14,3,3,7,m,Stephan.jpg,pieFS3.bmp,257132,258759,1627,q,1
216806,15,3,1,2,f,Anita.jpg,pieFS3.bmp,266471,268059,1588,p,0
216806,16,5,1,9,f,Christina.jpg,pieFS5.bmp,275778,277679,1901,p,0
216806,17,2,5,7,f,Liz.jpg,pieFS2.bmp,285383,286399,1016,q,1
216806,18,1,9,9,m,Eric.jpg,pieFS1.bmp,294107,295179,1072,q,1
216806,19,2,3,4,m,Tom.jpg,pieFS2.bmp,302897,304119,1222,q,1
216806,20,4,1,4,f,Jane.jpg,pieFS4.bmp,311837,314079,2242,q,1
216806,21,4,3,12,f,Laura.jpg,pieFS4.bmp,321792,324239,2447,q,1
216806,22,5,2,18,f,Michelle.jpg,pieFS5.bmp,331947,333379,1432,p,0
216806,23,5,2,18,m,Kevin.jpg,pieFS5.bmp,341087,342499,1412,p,0
216806,24,5,1,9,m,John.jpg,pieFS5.bmp,350210,352259,2049,p,0
216806,25,4,4,16,f,Mary.jpg,pieFS4.bmp,359966,361939,1973,q,1
216806,26,3,6,14,m,Chris.jpg,pieFS3.bmp,369655,371139,1484,q,1
216845,1,3,3,7,m,Tom.jpg,pieFS3.bmp,260511,270752,10241,p,0
216845,2,5,1,9,m,Robert.jpg,pieFS5.bmp,278391,280732,2341,p,0
216845,3,3,2,4,f,Mary.jpg,pieFS3.bmp,288363,292072,3709,q,1
216845,4,4,3,12,f,Jane.jpg,pieFS4.bmp,299700,301392,1692,q,1
216845,5,2,3,4,m,Michael.jpg,pieFS2.bmp,309023,310493,1470,q,1
216845,6,4,3,12,m,Eric.jpg,pieFS4.bmp,318130,319873,1743,q,1
216845,7,4,1,4,f,Sandra.jpg,pieFS4.bmp,327502,328933,1431,q,1
216845,8,1,9,9,m,Stephan.jpg,pieFS1.bmp,336559,344193,7634,q,1
216845,9,5,2,18,f,Anna.jpg,pieFS5.bmp,351825,352993,1168,q,1
216845,10,3,1,2,f,Liz.jpg,pieFS3.bmp,360615,362273,1658,q,1
216845,11,5,1,9,f,Laura.jpg,pieFS5.bmp,369905,371113,1208,q,1
216845,12,3,6,14,m,Richard.jpg,pieFS3.bmp,378745,380013,1268,q,1
216845,13,1,8,8,f,Becky.jpg,pieFS1.bmp,387635,389654,2019,q,1
216845,14,4,1,4,m,John.jpg,pieFS4.bmp,397274,398354,1080,q,1
216845,15,4,4,16,f,Jessica.jpg,pieFS4.bmp,405981,407234,1253,q,1
216845,16,4,2,8,f,Susan.jpg,pieFS4.bmp,414871,421994,7123,q,1
216845,17,4,4,16,m,Frank.jpg,pieFS4.bmp,429622,430814,1192,q,1
216845,18,3,5,11,m,James.jpg,pieFS3.bmp,438445,439494,1049,q,1
216845,19,5,1,9,m,Chris.jpg,pieFS5.bmp,447119,448154,1035,q,1
216845,20,5,2,18,f,Silvia.jpg,pieFS5.bmp,455792,456734,942,q,1
216845,21,2,5,7,m,Paul.jpg,pieFS2.bmp,464366,465814,1448,q,1
216845,22,5,2,18,m,David.jpg,pieFS5.bmp,473456,474434,978,q,1
216845,23,3,4,9,f,Anita.jpg,pieFS3.bmp,482063,483474,1411,q,1
216845,24,5,2,18,m,Kevin.jpg,pieFS5.bmp,491103,492655,1552,q,1
216845,25,2,5,7,f,Michelle.jpg,pieFS2.bmp,500293,501255,962,q,1
216845,26,3,5,11,f,Christina.jpg,pieFS3.bmp,508883,510075,1192,q,1
217048,1,4,4,16,m,Stephan.jpg,pieFS4.bmp,132717,135363,2646,q,1
217048,2,4,1,4,f,Laura.jpg,pieFS4.bmp,143006,145743,2737,q,1
217048,3,3,5,11,m,Chris.jpg,pieFS3.bmp,153395,155383,1988,q,1
217048,4,3,5,11,f,Michelle.jpg,pieFS3.bmp,163034,164663,1629,q,1
217048,5,4,2,8,f,Anita.jpg,pieFS4.bmp,172307,174644,2337,q,1
217048,6,4,1,4,m,Paul.jpg,pieFS4.bmp,182296,184404,2108,q,1
217048,7,5,2,18,f,Susan.jpg,pieFS5.bmp,192052,194424,2372,q,1
217048,8,5,1,9,m,David.jpg,pieFS5.bmp,202058,204424,2366,q,1
217048,9,4,3,12,m,Frank.jpg,pieFS4.bmp,212080,214685,2605,q,1
217048,10,1,8,8,f,Christina.jpg,pieFS1.bmp,222335,224065,1730,q,1
217048,11,5,2,18,m,Kevin.jpg,pieFS5.bmp,231692,233745,2053,q,1
217048,12,3,1,2,f,Liz.jpg,pieFS3.bmp,241381,243345,1964,q,1
217048,13,2,5,7,m,Tom.jpg,pieFS2.bmp,250987,252626,1639,q,1
217048,14,5,1,9,f,Silvia.jpg,pieFS5.bmp,260277,262086,1809,q,1
217048,15,1,9,9,m,Robert.jpg,pieFS1.bmp,269733,271346,1613,q,1
217048,16,5,2,18,m,John.jpg,pieFS5.bmp,278973,280486,1513,q,1
217048,17,2,5,7,f,Jessica.jpg,pieFS2.bmp,288129,289367,1238,q,1
217048,18,4,3,12,f,Mary.jpg,pieFS4.bmp,297003,298227,1224,q,1
217048,19,3,3,7,m,Eric.jpg,pieFS3.bmp,305860,307467,1607,q,1
217048,20,5,2,18,f,Becky.jpg,pieFS5.bmp,315116,316767,1651,q,1
217048,21,2,3,4,m,James.jpg,pieFS2.bmp,324406,325648,1242,q,1
217048,22,3,2,4,f,Jane.jpg,pieFS3.bmp,333296,334648,1352,q,1
217048,23,3,4,9,f,Anna.jpg,pieFS3.bmp,342303,343668,1365,q,1
217048,24,4,4,16,f,Sandra.jpg,pieFS4.bmp,351310,352368,1058,q,1
217048,25,3,6,14,m,Michael.jpg,pieFS3.bmp,360017,361209,1192,q,1
217048,26,5,1,9,m,Richard.jpg,pieFS5.bmp,368857,370769,1912,q,1
217173,1,3,2,4,f,Jessica.jpg,pieFS3.bmp,380579,390138,9559,q,1
217173,2,4,3,12,m,Tom.jpg,pieFS4.bmp,397760,404278,6518,q,1
217173,3,2,5,7,m,David.jpg,pieFS2.bmp,411911,414899,2988,q,1
217173,4,2,3,4,m,Richard.jpg,pieFS2.bmp,422516,424479,1963,q,1
217173,5,5,1,9,f,Susan.jpg,pieFS5.bmp,432106,437839,5733,q,1
217173,6,4,2,8,f,Anna.jpg,pieFS4.bmp,445458,449360,3902,q,1
217173,7,3,3,7,m,Michael.jpg,pieFS3.bmp,456978,459240,2262,q,1
217173,8,4,1,4,f,Laura.jpg,pieFS4.bmp,466867,474620,7753,q,1
217173,9,2,5,7,f,Michelle.jpg,pieFS2.bmp,482250,483700,1450,q,1
217173,10,5,1,9,m,Chris.jpg,pieFS5.bmp,491324,505421,14097,p,0
217173,11,5,1,9,m,Frank.jpg,pieFS5.bmp,513050,519981,6931,p,0
217173,12,3,4,9,f,Sandra.jpg,pieFS3.bmp,527600,530182,2582,q,1
217173,13,5,2,18,f,Mary.jpg,pieFS5.bmp,537806,542562,4756,p,0
217173,14,5,2,18,m,Stephan.jpg,pieFS5.bmp,550192,553782,3590,p,0
217173,15,5,2,18,m,Eric.jpg,pieFS5.bmp,561413,564803,3390,p,0
217173,16,4,4,16,m,Paul.jpg,pieFS4.bmp,572434,577323,4889,q,1
217173,17,3,1,2,f,Christina.jpg,pieFS3.bmp,584954,586603,1649,q,1
217173,18,1,8,8,f,Jane.jpg,pieFS1.bmp,594227,595763,1536,q,1
217173,19,3,6,14,m,Robert.jpg,pieFS3.bmp,603400,605104,1704,q,1
217173,20,5,2,18,f,Anita.jpg,pieFS5.bmp,612740,617744,5004,p,0
217173,21,4,3,12,f,Liz.jpg,pieFS4.bmp,625376,628264,2888,q,1
217173,22,3,5,11,f,Silvia.jpg,pieFS3.bmp,635898,637444,1546,q,1
217173,23,4,1,4,m,John.jpg,pieFS4.bmp,645071,648005,2934,q,1
217173,24,4,4,16,f,Becky.jpg,pieFS4.bmp,655626,657565,1939,q,1
217173,25,1,9,9,m,James.jpg,pieFS1.bmp,665199,666445,1246,q,1
217173,26,3,5,11,m,Kevin.jpg,pieFS3.bmp,674072,675386,1314,q,1
217293,1,3,1,2,f,Jessica.jpg,pieFS3.bmp,382475,387622,5147,q,1
217293,2,4,4,16,f,Anita.jpg,pieFS4.bmp,395261,400063,4802,p,0
217293,3,5,1,9,f,Michelle.jpg,pieFS5.bmp,407714,411163,3449,p,0
217293,4,4,2,8,f,Anna.jpg,pieFS4.bmp,418801,422283,3482,q,1
217293,5,5,1,9,m,Paul.jpg,pieFS5.bmp,429906,433743,3837,p,0
217293,6,5,2,18,m,John.jpg,pieFS5.bmp,441376,444283,2907,p,0
217293,7,1,8,8,f,Mary.jpg,pieFS1.bmp,451915,455423,3508,q,1
217293,8,3,5,11,f,Susan.jpg,pieFS3.bmp,463052,466404,3352,q,1
217293,9,2,5,7,m,Chris.jpg,pieFS2.bmp,474023,478864,4841,q,1
217293,10,3,5,11,m,Richard.jpg,pieFS3.bmp,486493,490744,4251,q,1
217293,11,5,1,9,m,Kevin.jpg,pieFS5.bmp,498363,500284,1921,p,0
217293,12,3,3,7,m,Stephan.jpg,pieFS3.bmp,507903,512785,4882,q,1
217293,13,4,1,4,f,Liz.jpg,pieFS4.bmp,520405,523845,3440,q,1
217293,14,4,1,4,m,Frank.jpg,pieFS4.bmp,531476,534425,2949,q,1
217293,15,2,3,4,m,Michael.jpg,pieFS2.bmp,542048,544705,2657,q,1
217293,16,1,9,9,m,James.jpg,pieFS1.bmp,552337,556105,3768,q,1
217293,17,2,5,7,f,Becky.jpg,pieFS2.bmp,563741,565526,1785,q,1
217293,18,3,4,9,f,Silvia.jpg,pieFS3.bmp,573147,575666,2519,q,1
217293,19,4,4,16,m,Tom.jpg,pieFS4.bmp,583286,586546,3260,q,1
217293,20,5,2,18,f,Jane.jpg,pieFS5.bmp,594173,597846,3673,q,1
217293,21,5,2,18,f,Sandra.jpg,pieFS5.bmp,605478,608306,2828,q,1
217293,22,4,3,12,m,Eric.jpg,pieFS4.bmp,615933,617727,1794,q,1
217293,23,5,2,18,m,Robert.jpg,pieFS5.bmp,625356,628767,3411,q,1
217293,24,3,6,14,m,David.jpg,pieFS3.bmp,636393,639407,3014,q,1
217293,25,4,3,12,f,Christina.jpg,pieFS4.bmp,647031,649107,2076,q,1
217293,26,3,2,4,f,Laura.jpg,pieFS3.bmp,656737,659067,2330,q,1
217487,1,5,2,18,f,Liz.jpg,pieFS5.bmp,281713,284091,2378,p,0
217487,2,4,3,12,m,Frank.jpg,pieFS4.bmp,291718,294051,2333,p,0
217487,3,1,8,8,f,Michelle.jpg,pieFS1.bmp,301691,303891,2200,q,1
217487,4,3,1,2,f,Anna.jpg,pieFS3.bmp,311530,314072,2542,q,1
217487,5,1,9,9,m,Chris.jpg,pieFS1.bmp,321702,323932,2230,q,1
217487,6,5,2,18,m,Michael.jpg,pieFS5.bmp,331574,333612,2038,p,0
217487,7,5,1,9,m,James.jpg,pieFS5.bmp,341247,343252,2005,p,0
217487,8,4,4,16,f,Becky.jpg,pieFS4.bmp,350887,353813,2926,p,0
217487,9,3,3,7,m,Richard.jpg,pieFS3.bmp,361458,364913,3455,q,1
217487,10,2,5,7,f,Mary.jpg,pieFS2.bmp,372563,375153,2590,q,1
217487,11,4,4,16,m,John.jpg,pieFS4.bmp,382785,384834,2049,p,0
217487,12,5,1,9,f,Jessica.jpg,pieFS5.bmp,392474,394394,1920,p,0
217487,13,2,5,7,m,Robert.jpg,pieFS2.bmp,402063,404054,1991,q,1
217487,14,2,3,4,m,Stephan.jpg,pieFS2.bmp,411736,413395,1659,q,1
217487,15,5,2,18,m,Eric.jpg,pieFS5.bmp,421076,422655,1579,p,0
217487,16,4,1,4,m,Tom.jpg,pieFS4.bmp,430332,433595,3263,q,1
217487,17,4,3,12,f,Susan.jpg,pieFS4.bmp,441270,442695,1425,p,0
217487,18,5,1,9,m,David.jpg,pieFS5.bmp,450377,452055,1678,p,0
217487,19,3,6,14,m,Kevin.jpg,pieFS3.bmp,459717,463356,3639,p,0
217487,20,4,2,8,f,Silvia.jpg,pieFS4.bmp,471037,474576,3539,q,1
217487,21,3,5,11,f,Christina.jpg,pieFS3.bmp,482225,484376,2151,q,1
217487,22,3,4,9,f,Jane.jpg,pieFS3.bmp,492014,495237,3223,p,0
217487,23,3,5,11,m,Paul.jpg,pieFS3.bmp,502869,508957,6088,p,0
217487,24,5,2,18,f,Sandra.jpg,pieFS5.bmp,516604,518937,2333,p,0
217487,25,3,2,4,f,Laura.jpg,pieFS3.bmp,526576,528577,2001,q,1
217487,26,4,1,4,f,Anita.jpg,pieFS4.bmp,536199,538498,2299,p,0
217514,1,3,4,9,f,Jessica.jpg,pieFS3.bmp,160340,163166,2826,q,1
217514,2,5,2,18,f,Susan.jpg,pieFS5.bmp,170795,175986,5191,p,0
217514,3,3,3,7,m,Richard.jpg,pieFS3.bmp,183615,186187,2572,q,1
217514,4,5,2,18,m,Robert.jpg,pieFS5.bmp,193820,198467,4647,p,0
217514,5,2,3,4,m,John.jpg,pieFS2.bmp,206123,208987,2864,q,1
217514,6,2,5,7,f,Michelle.jpg,pieFS2.bmp,216612,218887,2275,q,1
217514,7,3,2,4,f,Anita.jpg,pieFS3.bmp,226534,228608,2074,q,1
217514,8,4,1,4,m,Michael.jpg,pieFS4.bmp,236257,238448,2191,q,1
217514,9,1,8,8,f,Anna.jpg,pieFS1.bmp,246079,247868,1789,q,1
217514,10,5,1,9,f,Laura.jpg,pieFS5.bmp,255519,259508,3989,q,1
217514,11,4,2,8,f,Sandra.jpg,pieFS4.bmp,267139,269349,2210,q,1
217514,12,4,1,4,f,Mary.jpg,pieFS4.bmp,276995,279949,2954,p,0
217514,13,4,3,12,f,Jane.jpg,pieFS4.bmp,287583,289069,1486,q,1
217514,14,3,6,14,m,Kevin.jpg,pieFS3.bmp,296723,298909,2186,q,1
217514,15,5,1,9,m,Paul.jpg,pieFS5.bmp,306546,308910,2364,q,1
217514,16,3,5,11,m,James.jpg,pieFS3.bmp,316535,318770,2235,q,1
217514,17,4,3,12,m,Tom.jpg,pieFS4.bmp,326407,327990,1583,q,1
217514,18,5,2,18,m,Frank.jpg,pieFS5.bmp,335630,339811,4181,p,0
217514,19,5,2,18,f,Silvia.jpg,pieFS5.bmp,347451,349431,1980,q,1
217514,20,4,4,16,m,Eric.jpg,pieFS4.bmp,357074,359131,2057,q,1
217514,21,1,9,9,m,David.jpg,pieFS1.bmp,366763,368231,1468,q,1
217514,22,5,1,9,m,Chris.jpg,pieFS5.bmp,375870,378892,3022,p,0
217514,23,4,4,16,f,Liz.jpg,pieFS4.bmp,386524,387972,1448,q,1
217514,24,3,5,11,f,Christina.jpg,pieFS3.bmp,395598,397012,1414,q,1
217514,25,2,5,7,m,Stephan.jpg,pieFS2.bmp,404654,406052,1398,q,1
217514,26,3,1,2,f,Becky.jpg,pieFS3.bmp,413678,416413,2735,q,1
217630,1,1,8,8,f,Christina.jpg,pieFS1.bmp,952730,959916,7186,q,1
217630,2,5,1,9,m,Frank.jpg,pieFS5.bmp,967563,970836,3273,p,0
217630,3,2,5,7,f,Jane.jpg,pieFS2.bmp,978484,981116,2632,q,1
217630,4,5,2,18,f,Liz.jpg,pieFS5.bmp,988756,991156,2400,p,0
217630,5,4,1,4,f,Laura.jpg,pieFS4.bmp,998795,1003076,4281,q,1
217630,6,4,3,12,f,Michelle.jpg,pieFS4.bmp,1010715,1013296,2581,q,1
217630,7,1,9,9,m,Chris.jpg,pieFS1.bmp,1020936,1022916,1980,q,1
217630,8,3,3,7,m,Robert.jpg,pieFS3.bmp,1030559,1032636,2077,q,1
217630,9,4,1,4,m,Richard.jpg,pieFS4.bmp,1040298,1042216,1918,q,1
217630,10,2,5,7,m,Stephan.jpg,pieFS2.bmp,1049871,1052556,2685,q,1
217630,11,5,2,18,f,Anita.jpg,pieFS5.bmp,1060209,1063396,3187,p,0
217630,12,5,2,18,m,David.jpg,pieFS5.bmp,1071047,1073916,2869,p,0
217630,13,5,2,18,m,Tom.jpg,pieFS5.bmp,1081568,1084616,3048,p,0
217630,14,3,2,4,f,Susan.jpg,pieFS3.bmp,1092256,1094616,2360,q,1
217630,15,5,1,9,m,James.jpg,pieFS5.bmp,1102262,1107136,4874,q,1
217630,16,4,3,12,m,John.jpg,pieFS4.bmp,1114781,1116856,2075,q,1
217630,17,4,4,16,f,Sandra.jpg,pieFS4.bmp,1124503,1126296,1793,q,1
217630,18,3,5,11,f,Mary.jpg,pieFS3.bmp,1133943,1135716,1773,q,1
217630,19,3,1,2,f,Anna.jpg,pieFS3.bmp,1143366,1145436,2070,q,1
217630,20,3,5,11,m,Eric.jpg,pieFS3.bmp,1153088,1154896,1808,q,1
217630,21,3,4,9,f,Becky.jpg,pieFS3.bmp,1162544,1164316,1772,q,1
217630,22,4,2,8,f,Jessica.jpg,pieFS4.bmp,1171967,1174216,2249,q,1
217630,23,5,1,9,f,Silvia.jpg,pieFS5.bmp,1181856,1184296,2440,p,0
217630,24,4,4,16,m,Paul.jpg,pieFS4.bmp,1191944,1193557,1613,q,1
217630,25,3,6,14,m,Michael.jpg,pieFS3.bmp,1201200,1202957,1757,q,1
217630,26,2,3,4,m,Kevin.jpg,pieFS2.bmp,1210607,1212397,1790,q,1
217719,1,3,4,9,f,Sandra.jpg,pieFS3.bmp,1078293,1083620,5327,q,1
217719,2,4,1,4,m,Chris.jpg,pieFS4.bmp,1091268,1098000,6732,p,0
217719,3,2,5,7,f,Jane.jpg,pieFS2.bmp,1105648,1111293,5645,q,1
217719,4,5,1,9,m,David.jpg,pieFS5.bmp,1118941,1122356,3415,p,0
217719,5,5,2,18,f,Silvia.jpg,pieFS5.bmp,1130011,1132949,2938,p,0
217719,6,4,3,12,f,Mary.jpg,pieFS4.bmp,1140578,1143636,3058,p,0
217719,7,3,5,11,m,Eric.jpg,pieFS3.bmp,1151263,1154341,3078,q,1
217719,8,1,8,8,f,Michelle.jpg,pieFS1.bmp,1161981,1165605,3624,q,1
217719,9,4,3,12,m,John.jpg,pieFS4.bmp,1173251,1176822,3571,q,1
217719,10,3,5,11,f,Liz.jpg,pieFS3.bmp,1184470,1187415,2945,q,1
217719,11,2,3,4,m,Paul.jpg,pieFS2.bmp,1195072,1199265,4193,q,1
217719,12,5,2,18,f,Anita.jpg,pieFS5.bmp,1206910,1210140,3230,p,0
217719,13,5,2,18,m,James.jpg,pieFS5.bmp,1217795,1220466,2671,p,0
217719,14,3,3,7,m,Michael.jpg,pieFS3.bmp,1228112,1231046,2934,q,1
217719,15,4,2,8,f,Jessica.jpg,pieFS4.bmp,1238696,1241169,2473,q,1
217719,16,2,5,7,m,Stephan.jpg,pieFS2.bmp,1248796,1251331,2535,q,1
217719,17,3,2,4,f,Susan.jpg,pieFS3.bmp,1258962,1261569,2607,q,1
217719,18,4,1,4,f,Becky.jpg,pieFS4.bmp,1269178,1273288,4110,p,0
217719,19,5,2,18,m,Richard.jpg,pieFS5.bmp,1280933,1284307,3374,p,0
217719,20,4,4,16,m,Robert.jpg,pieFS4.bmp,1291952,1294887,2935,p,0
217719,21,5,1,9,m,Tom.jpg,pieFS5.bmp,1302537,1305086,2549,p,0
217719,22,3,6,14,m,Frank.jpg,pieFS3.bmp,1312736,1315773,3037,q,1
217719,23,5,1,9,f,Christina.jpg,pieFS5.bmp,1323421,1326480,3059,p,0
217719,24,1,9,9,m,Kevin.jpg,pieFS1.bmp,1334122,1339224,5102,q,1
217719,25,4,4,16,f,Laura.jpg,pieFS4.bmp,1346864,1349367,2503,p,0
217719,26,3,1,2,f,Anna.jpg,pieFS3.bmp,1357013,1359609,2596,q,1
217909,1,5,2,18,m,Paul.jpg,pieFS5.bmp,346348,361282,14934,p,0
217909,2,3,5,11,m,Chris.jpg,pieFS3.bmp,368956,372443,3487,q,1
217909,3,3,1,2,f,Anna.jpg,pieFS3.bmp,380110,386343,6233,q,1
217909,4,2,5,7,m,David.jpg,pieFS2.bmp,394028,398163,4135,q,1
217909,5,4,4,16,f,Jessica.jpg,pieFS4.bmp,405848,408363,2515,q,1
217909,6,2,3,4,m,Tom.jpg,pieFS2.bmp,416036,419763,3727,q,1
217909,7,5,2,18,f,Michelle.jpg,pieFS5.bmp,427424,429083,1659,q,1
217909,8,2,5,7,f,Liz.jpg,pieFS2.bmp,436713,438724,2011,q,1
217909,9,4,2,8,f,Sandra.jpg,pieFS4.bmp,446352,447943,1591,q,1
217909,10,4,1,4,f,Christina.jpg,pieFS4.bmp,455575,457364,1789,q,1
217909,11,3,5,11,f,Susan.jpg,pieFS3.bmp,464998,466404,1406,q,1
217909,12,4,4,16,m,Eric.jpg,pieFS4.bmp,474038,476824,2786,q,1
217909,13,5,2,18,m,Michael.jpg,pieFS5.bmp,484443,485924,1481,p,0
217909,14,3,4,9,f,Jane.jpg,pieFS3.bmp,493550,494784,1234,q,1
217909,15,4,1,4,m,John.jpg,pieFS4.bmp,502406,503664,1258,q,1
217909,16,3,3,7,m,Frank.jpg,pieFS3.bmp,511297,512504,1207,q,1
217909,17,5,1,9,m,James.jpg,pieFS5.bmp,520137,522344,2207,q,1
217909,18,5,1,9,m,Robert.jpg,pieFS5.bmp,529976,531524,1548,q,1
217909,19,4,3,12,m,Stephan.jpg,pieFS4.bmp,539149,540224,1075,q,1
217909,20,4,3,12,f,Anita.jpg,pieFS4.bmp,547856,549325,1469,q,1
217909,21,1,8,8,f,Laura.jpg,pieFS1.bmp,556946,560325,3379,p,0
217909,22,3,2,4,f,Silvia.jpg,pieFS3.bmp,567950,569285,1335,q,1
217909,23,5,2,18,f,Mary.jpg,pieFS5.bmp,576907,578665,1758,q,1
217909,24,1,9,9,m,Richard.jpg,pieFS1.bmp,586296,588865,2569,q,1
217909,25,5,1,9,f,Becky.jpg,pieFS5.bmp,596501,597665,1164,q,1
217909,26,3,6,14,m,Kevin.jpg,pieFS3.bmp,605292,606625,1333,q,1
217988,1,4,4,16,f,Jessica.jpg,pieFS4.bmp,317312,320958,3646,q,1
217988,2,3,5,11,f,Anna.jpg,pieFS3.bmp,328583,330757,2174,q,1
217988,3,3,2,4,f,Sandra.jpg,pieFS3.bmp,338389,340178,1789,q,1
217988,4,5,1,9,f,Liz.jpg,pieFS5.bmp,347828,349958,2130,q,1
217988,5,4,4,16,m,Eric.jpg,pieFS4.bmp,357584,359898,2314,q,1
217988,6,3,6,14,m,Robert.jpg,pieFS3.bmp,367523,368878,1355,q,1
217988,7,4,3,12,f,Laura.jpg,pieFS4.bmp,376512,378138,1626,q,1
217988,8,4,2,8,f,Susan.jpg,pieFS4.bmp,385769,386938,1169,q,1
217988,9,3,1,2,f,Becky.jpg,pieFS3.bmp,394575,395858,1283,q,1
217988,10,5,2,18,f,Anita.jpg,pieFS5.bmp,403515,404718,1203,q,1
217988,11,3,3,7,m,Michael.jpg,pieFS3.bmp,412389,413918,1529,q,1
217988,12,4,1,4,m,David.jpg,pieFS4.bmp,421595,422638,1043,q,1
217988,13,2,5,7,f,Jane.jpg,pieFS2.bmp,430319,431658,1339,q,1
217988,14,2,3,4,m,Chris.jpg,pieFS2.bmp,439342,440578,1236,q,1
217988,15,5,2,18,m,Frank.jpg,pieFS5.bmp,448248,449358,1110,q,1
217988,16,1,9,9,m,Tom.jpg,pieFS1.bmp,457039,458038,999,q,1
217988,17,2,5,7,m,James.jpg,pieFS2.bmp,465712,466798,1086,q,1
217988,18,5,1,9,m,John.jpg,pieFS5.bmp,474452,475558,1106,q,1
217988,19,5,2,18,f,Mary.jpg,pieFS5.bmp,483193,484718,1525,q,1
217988,20,5,1,9,m,Kevin.jpg,pieFS5.bmp,492349,493298,949,q,1
217988,21,4,3,12,m,Paul.jpg,pieFS4.bmp,500939,501878,939,q,1
217988,22,3,4,9,f,Christina.jpg,pieFS3.bmp,509513,510698,1185,q,1
217988,23,3,5,11,m,Richard.jpg,pieFS3.bmp,518336,519658,1322,q,1
217988,24,4,1,4,f,Silvia.jpg,pieFS4.bmp,527276,528779,1503,q,1
217988,25,1,8,8,f,Michelle.jpg,pieFS1.bmp,536399,537798,1399,q,1
217988,26,5,2,18,m,Stephan.jpg,pieFS5.bmp,545423,546658,1235,q,1
218207,1,3,4,9,f,Susan.jpg,pieFS3.bmp,168091,174114,6023,m,0
218207,2,3,5,11,m,Frank.jpg,pieFS3.bmp,181685,187214,5529,m,0
218207,3,1,9,9,m,Richard.jpg,pieFS1.bmp,194794,197714,2920,z,1
218207,4,5,1,9,f,Mary.jpg,pieFS5.bmp,205295,212246,6951,m,0
218207,5,2,5,7,m,Tom.jpg,pieFS2.bmp,219825,223419,3594,z,1
218207,6,4,3,12,m,Eric.jpg,pieFS4.bmp,230995,233512,2517,m,0
218207,7,3,2,4,f,Sandra.jpg,pieFS3.bmp,241094,245857,4763,z,1
218207,8,5,2,18,f,Laura.jpg,pieFS5.bmp,253434,256217,2783,m,0
218207,9,4,1,4,f,Becky.jpg,pieFS4.bmp,263801,267355,3554,m,0
218207,10,4,4,16,m,Paul.jpg,pieFS4.bmp,274937,276445,1508,m,0
218207,11,4,1,4,m,James.jpg,pieFS4.bmp,284017,286524,2507,m,0
218207,12,5,1,9,m,Stephan.jpg,pieFS5.bmp,294100,297897,3797,m,0
218207,13,3,3,7,m,John.jpg,pieFS3.bmp,305470,308025,2555,m,0
218207,14,1,8,8,f,Jane.jpg,pieFS1.bmp,315603,317479,1876,z,1
218207,15,2,3,4,m,Kevin.jpg,pieFS2.bmp,325050,326948,1898,z,1
218207,16,5,2,18,m,Chris.jpg,pieFS5.bmp,334531,336573,2042,m,0
218207,17,5,2,18,f,Anita.jpg,pieFS5.bmp,344145,345777,1632,m,0
218207,18,4,4,16,f,Anna.jpg,pieFS4.bmp,353358,355495,2137,m,0
218207,19,2,5,7,f,Christina.jpg,pieFS2.bmp,363073,365356,2283,z,1
218207,20,5,1,9,m,Michael.jpg,pieFS5.bmp,372939,374544,1605,m,0
218207,21,5,2,18,m,Robert.jpg,pieFS5.bmp,382118,383357,1239,m,0
218207,22,3,6,14,m,David.jpg,pieFS3.bmp,390930,393717,2787,m,0
218207,23,4,2,8,f,Jessica.jpg,pieFS4.bmp,401297,404468,3171,m,0
218207,24,4,3,12,f,Liz.jpg,pieFS4.bmp,412049,415193,3144,m,0
218207,25,3,5,11,f,Silvia.jpg,pieFS3.bmp,422767,425469,2702,z,1
218207,26,3,1,2,f,Michelle.jpg,pieFS3.bmp,433050,435813,2763,z,1
218219,1,5,2,18,m,Robert.jpg,pieFS5.bmp,208678,213462,4784,p,0
218219,2,3,4,9,f,Jane.jpg,pieFS3.bmp,221097,224122,3025,q,1
218219,3,1,9,9,m,Chris.jpg,pieFS1.bmp,231752,234282,2530,q,1
218219,4,3,3,7,m,James.jpg,pieFS3.bmp,241923,246222,4299,p,0
218219,5,5,1,9,f,Anna.jpg,pieFS5.bmp,253860,255402,1542,p,0
218219,6,1,8,8,f,Sandra.jpg,pieFS1.bmp,263033,264702,1669,q,1
218219,7,5,1,9,m,Paul.jpg,pieFS5.bmp,272339,274862,2523,p,0
218219,8,4,3,12,m,Tom.jpg,pieFS4.bmp,282494,283902,1408,p,0
218219,9,3,6,14,m,Stephan.jpg,pieFS3.bmp,291534,294302,2768,q,1
218219,10,4,3,12,f,Silvia.jpg,pieFS4.bmp,301955,303942,1987,p,0
218219,11,4,4,16,f,Anita.jpg,pieFS4.bmp,311578,313582,2004,p,0
218219,12,4,4,16,m,Richard.jpg,pieFS4.bmp,321217,323042,1825,p,0
218219,13,5,2,18,f,Laura.jpg,pieFS5.bmp,330673,331882,1209,p,0
218219,14,3,5,11,m,Michael.jpg,pieFS3.bmp,339513,342662,3149,q,1
218219,15,3,5,11,f,Michelle.jpg,pieFS3.bmp,350301,352842,2541,q,1
218219,16,2,5,7,m,Frank.jpg,pieFS2.bmp,360473,361722,1249,q,1
218219,17,3,2,4,f,Mary.jpg,pieFS3.bmp,369362,371202,1840,q,1
218219,18,5,2,18,f,Becky.jpg,pieFS5.bmp,378835,380242,1407,p,0
218219,19,2,3,4,m,David.jpg,pieFS2.bmp,387875,389682,1807,q,1
218219,20,4,2,8,f,Susan.jpg,pieFS4.bmp,397314,398921,1607,p,0
218219,21,3,1,2,f,Christina.jpg,pieFS3.bmp,406554,408121,1567,q,1
218219,22,4,1,4,f,Liz.jpg,pieFS4.bmp,415760,417881,2121,q,1
218219,23,5,1,9,m,Eric.jpg,pieFS5.bmp,425516,426761,1245,p,0
218219,24,4,1,4,m,John.jpg,pieFS4.bmp,434389,436781,2392,p,0
218219,25,5,2,18,m,Kevin.jpg,pieFS5.bmp,444411,445821,1410,p,0
218219,26,2,5,7,f,Jessica.jpg,pieFS2.bmp,453451,455161,1710,q,1
218457,1,5,2,18,m,James.jpg,pieFS5.bmp,214601,221168,6567,p,0
218457,2,3,3,7,m,Tom.jpg,pieFS3.bmp,228802,235949,7147,p,0
218457,3,3,5,11,m,David.jpg,pieFS3.bmp,243569,249029,5460,p,0
218457,4,2,5,7,f,Laura.jpg,pieFS2.bmp,256655,261449,4794,q,1
218457,5,5,2,18,f,Jane.jpg,pieFS5.bmp,269075,271390,2315,p,0
218457,6,4,3,12,m,Eric.jpg,pieFS4.bmp,279030,282250,3220,p,0
218457,7,5,2,18,f,Michelle.jpg,pieFS5.bmp,289885,291830,1945,p,0
218457,8,5,1,9,m,Stephan.jpg,pieFS5.bmp,299458,302710,3252,p,0
218457,9,3,5,11,f,Anita.jpg,pieFS3.bmp,310346,313571,3225,p,0
218457,10,3,4,9,f,Silvia.jpg,pieFS3.bmp,321201,323211,2010,p,0
218457,11,5,2,18,m,John.jpg,pieFS5.bmp,330840,332441,1601,p,0
218457,12,3,6,14,m,Kevin.jpg,pieFS3.bmp,340063,341491,1428,p,0
218457,13,4,1,4,f,Anna.jpg,pieFS4.bmp,349120,351152,2032,p,0
218457,14,4,4,16,m,Richard.jpg,pieFS4.bmp,358776,360652,1876,p,0
218457,15,5,1,9,f,Becky.jpg,pieFS5.bmp,368282,370172,1890,p,0
218457,16,3,1,2,f,Liz.jpg,pieFS3.bmp,377805,382552,4747,q,1
218457,17,4,1,4,m,Chris.jpg,pieFS4.bmp,390175,392533,2358,p,0
218457,18,4,2,8,f,Sandra.jpg,pieFS4.bmp,400164,402033,1869,p,0
218457,19,2,3,4,m,Robert.jpg,pieFS2.bmp,409653,414833,5180,q,1
218457,20,1,9,9,m,Paul.jpg,pieFS1.bmp,422456,426054,3598,q,1
218457,21,1,8,8,f,Mary.jpg,pieFS1.bmp,433693,435534,1841,q,1
218457,22,3,2,4,f,Jessica.jpg,pieFS3.bmp,443166,446374,3208,p,0
218457,23,5,1,9,m,Frank.jpg,pieFS5.bmp,454004,455874,1870,p,0
218457,24,4,3,12,f,Christina.jpg,pieFS4.bmp,463494,465095,1601,p,0
218457,25,2,5,7,m,Michael.jpg,pieFS2.bmp,472717,475635,2918,p,0
218457,26,4,4,16,f,Susan.jpg,pieFS4.bmp,483255,484775,1520,p,0
218572,1,4,4,16,f,Mary.jpg,pieFS4.bmp,529719,532533,2814,p,0
218572,2,5,1,9,m,Eric.jpg,pieFS5.bmp,540190,541953,1763,p,0
218572,3,5,2,18,f,Sandra.jpg,pieFS5.bmp,549580,551273,1693,p,0
218572,4,2,5,7,f,Susan.jpg,pieFS2.bmp,558903,560593,1690,q,1
218572,5,3,4,9,f,Michelle.jpg,pieFS3.bmp,568226,570214,1988,q,1
218572,6,3,5,11,m,Tom.jpg,pieFS3.bmp,577849,579714,1865,q,1
218572,7,2,5,7,m,Robert.jpg,pieFS2.bmp,587355,588894,1539,q,1
218572,8,3,6,14,m,Chris.jpg,pieFS3.bmp,596528,598194,1666,q,1
218572,9,1,9,9,m,Stephan.jpg,pieFS1.bmp,605835,607295,1460,q,1
218572,10,5,1,9,f,Anna.jpg,pieFS5.bmp,614925,616675,1750,p,0
218572,11,4,3,12,f,Liz.jpg,pieFS4.bmp,624314,626055,1741,p,0
218572,12,5,2,18,f,Christina.jpg,pieFS5.bmp,633687,635335,1648,p,0
218572,13,4,2,8,f,Anita.jpg,pieFS4.bmp,642977,644656,1679,p,0
218572,14,5,1,9,m,Michael.jpg,pieFS5.bmp,652300,653736,1436,p,0
218572,15,3,3,7,m,Richard.jpg,pieFS3.bmp,661373,662956,1583,q,1
218572,16,4,1,4,f,Becky.jpg,pieFS4.bmp,670613,672236,1623,p,0
218572,17,4,1,4,m,John.jpg,pieFS4.bmp,679870,681377,1507,p,0
218572,18,3,5,11,f,Jane.jpg,pieFS3.bmp,689010,690777,1767,q,1
218572,19,3,1,2,f,Laura.jpg,pieFS3.bmp,698416,699817,1401,q,1
218572,20,5,2,18,m,David.jpg,pieFS5.bmp,707473,709317,1844,p,0
218572,21,4,3,12,m,Frank.jpg,pieFS4.bmp,716946,719238,2292,p,0
218572,22,5,2,18,m,Kevin.jpg,pieFS5.bmp,726868,728438,1570,p,0
218572,23,3,2,4,f,Jessica.jpg,pieFS3.bmp,736091,738898,2807,q,1
218572,24,4,4,16,m,Paul.jpg,pieFS4.bmp,746530,748418,1888,p,0
218572,25,2,3,4,m,James.jpg,pieFS2.bmp,756052,757619,1567,q,1
218572,26,1,8,8,f,Silvia.jpg,pieFS1.bmp,765259,767019,1760,q,1
218714,1,4,1,4,f,Christina.jpg,pieFS4.bmp,594941,598491,3550,p,0
218714,2,3,2,4,f,Anna.jpg,pieFS3.bmp,606145,607591,1446,q,1
218714,3,4,3,12,m,John.jpg,pieFS4.bmp,615252,618791,3539,q,1
218714,4,4,4,16,f,Jane.jpg,pieFS4.bmp,626423,628792,2369,q,1
218714,5,3,3,7,m,David.jpg,pieFS3.bmp,636445,637632,1187,q,1
218714,6,5,1,9,f,Sandra.jpg,pieFS5.bmp,645285,646232,947,q,1
218714,7,2,5,7,m,Eric.jpg,pieFS2.bmp,653859,654752,893,q,1
218714,8,2,5,7,f,Liz.jpg,pieFS2.bmp,662383,663072,689,q,1
218714,9,5,2,18,f,Mary.jpg,pieFS5.bmp,670707,672092,1385,q,1
218714,10,4,2,8,f,Anita.jpg,pieFS4.bmp,679747,680533,786,q,1
218714,11,4,3,12,f,Michelle.jpg,pieFS4.bmp,688171,688913,742,q,1
218714,12,4,4,16,m,Paul.jpg,pieFS4.bmp,696545,697333,788,q,1
218714,13,1,8,8,f,Laura.jpg,pieFS1.bmp,704985,705853,868,q,1
218714,14,3,6,14,m,Michael.jpg,pieFS3.bmp,713509,714333,824,q,1
218714,15,3,1,2,f,Susan.jpg,pieFS3.bmp,721983,722633,650,q,1
218714,16,5,1,9,m,James.jpg,pieFS5.bmp,730274,730833,559,q,1
218714,17,1,9,9,m,Tom.jpg,pieFS1.bmp,738465,739154,689,q,1
218714,18,5,2,18,m,Stephan.jpg,pieFS5.bmp,746789,747474,685,q,1
218714,19,2,3,4,m,Robert.jpg,pieFS2.bmp,755113,755854,741,q,1
218714,20,5,1,9,m,Richard.jpg,pieFS5.bmp,763504,764274,770,q,1
218714,21,3,5,11,f,Silvia.jpg,pieFS3.bmp,771911,772554,643,q,1
218714,22,3,4,9,f,Becky.jpg,pieFS3.bmp,780185,780834,649,q,1
218714,23,3,5,11,m,Frank.jpg,pieFS3.bmp,788459,789114,655,q,1
218714,24,4,1,4,m,Chris.jpg,pieFS4.bmp,796767,797495,728,q,1
218714,25,5,2,18,f,Jessica.jpg,pieFS5.bmp,805141,805855,714,q,1
218714,26,5,2,18,m,Kevin.jpg,pieFS5.bmp,813482,814255,773,q,1
219052,1,3,2,4,f,Anna.jpg,pieFS3.bmp,179429,183693,4264,q,1
219052,2,1,9,9,m,Tom.jpg,pieFS1.bmp,191333,194893,3560,q,1
219052,3,2,3,4,m,John.jpg,pieFS2.bmp,202520,205493,2973,q,1
219052,4,5,2,18,m,David.jpg,pieFS5.bmp,213125,216613,3488,q,1
219052,5,4,1,4,m,Kevin.jpg,pieFS4.bmp,224246,226933,2687,q,1
219052,6,4,2,8,f,Jessica.jpg,pieFS4.bmp,234567,237533,2966,q,1
219052,7,4,4,16,f,Silvia.jpg,pieFS4.bmp,245172,248133,2961,q,1
219052,8,5,1,9,m,Michael.jpg,pieFS5.bmp,255760,260193,4433,q,1
219052,9,5,2,18,f,Becky.jpg,pieFS5.bmp,267830,271433,3603,q,1
219052,10,4,3,12,f,Sandra.jpg,pieFS4.bmp,279067,281953,2886,q,1
219052,11,4,1,4,f,Michelle.jpg,pieFS4.bmp,289589,292853,3264,q,1
219052,12,2,5,7,m,Richard.jpg,pieFS2.bmp,300493,304374,3881,q,1
219052,13,2,5,7,f,Mary.jpg,pieFS2.bmp,312014,314934,2920,q,1
219052,14,4,4,16,m,Eric.jpg,pieFS4.bmp,322568,325374,2806,q,1
219052,15,3,4,9,f,Christina.jpg,pieFS3.bmp,333007,336174,3167,q,1
219052,16,5,1,9,f,Susan.jpg,pieFS5.bmp,343811,346694,2883,q,1
219052,17,3,6,14,m,Paul.jpg,pieFS3.bmp,354333,357534,3201,q,1
219052,18,5,2,18,m,James.jpg,pieFS5.bmp,365170,368654,3484,q,1
219052,19,3,3,7,m,Robert.jpg,pieFS3.bmp,376291,378734,2443,q,1
219052,20,3,5,11,f,Anita.jpg,pieFS3.bmp,386363,389554,3191,q,1
219052,21,1,8,8,f,Jane.jpg,pieFS1.bmp,397184,399834,2650,q,1
219052,22,5,2,18,f,Liz.jpg,pieFS5.bmp,407473,410134,2661,q,1
219052,23,4,3,12,m,Chris.jpg,pieFS4.bmp,417761,420754,2993,q,1
219052,24,5,1,9,m,Stephan.jpg,pieFS5.bmp,428383,431334,2951,q,1
219052,25,3,1,2,f,Laura.jpg,pieFS3.bmp,438971,441974,3003,q,1
219052,26,3,5,11,m,Frank.jpg,pieFS3.bmp,449609,451914,2305,q,1
219089,1,2,3,4,m,Robert.jpg,pieFS2.bmp,546613,553168,6555,z,1
219089,2,5,2,18,f,Anna.jpg,pieFS5.bmp,560742,563649,2907,z,1
219089,3,3,5,11,m,David.jpg,pieFS3.bmp,571226,574824,3598,z,1
219089,4,4,4,16,f,Mary.jpg,pieFS4.bmp,582396,585642,3246,z,1
219089,5,3,5,11,f,Michelle.jpg,pieFS3.bmp,593214,596535,3321,z,1
219089,6,5,1,9,m,Richard.jpg,pieFS5.bmp,604116,607035,2919,z,1
219089,7,2,5,7,f,Susan.jpg,pieFS2.bmp,614617,617872,3255,z,1
219089,8,5,1,9,m,James.jpg,pieFS5.bmp,625452,628766,3314,z,1
219089,9,3,4,9,f,Anita.jpg,pieFS3.bmp,636337,639397,3060,z,1
219089,10,3,3,7,m,Chris.jpg,pieFS3.bmp,646972,649877,2905,z,1
219089,11,4,3,12,m,Paul.jpg,pieFS4.bmp,657456,660595,3139,z,1
219089,12,3,2,4,f,Jane.jpg,pieFS3.bmp,668174,671083,2909,z,1
219089,13,3,6,14,m,John.jpg,pieFS3.bmp,678658,681789,3131,z,1
219089,14,4,3,12,f,Laura.jpg,pieFS4.bmp,689359,692176,2817,z,1
219089,15,5,2,18,m,Tom.jpg,pieFS5.bmp,699760,702376,2616,z,1
219089,16,4,1,4,f,Silvia.jpg,pieFS4.bmp,709959,713006,3047,z,1
219089,17,4,4,16,m,Frank.jpg,pieFS4.bmp,720577,723150,2573,z,1
219089,18,5,1,9,f,Jessica.jpg,pieFS5.bmp,730727,733499,2772,z,1
219089,19,3,1,2,f,Sandra.jpg,pieFS3.bmp,741077,743980,2903,z,1
219089,20,5,2,18,f,Liz.jpg,pieFS5.bmp,751561,754517,2956,z,1
219089,21,4,1,4,m,Stephan.jpg,pieFS4.bmp,762095,764118,2023,z,1
219089,22,4,2,8,f,Christina.jpg,pieFS4.bmp,771693,774392,2699,z,1
219089,23,1,9,9,m,Michael.jpg,pieFS1.bmp,781976,784985,3009,z,1
219089,24,1,8,8,f,Becky.jpg,pieFS1.bmp,792561,795447,2886,z,1
219089,25,2,5,7,m,Eric.jpg,pieFS2.bmp,803028,805778,2750,z,1
219089,26,5,2,18,m,Kevin.jpg,pieFS5.bmp,813361,816146,2785,z,1
219144,1,4,1,4,f,Anita.jpg,pieFS4.bmp,155305,159381,4076,z,1
219144,2,5,1,9,f,Silvia.jpg,pieFS5.bmp,166959,170418,3459,m,0
219144,3,3,5,11,f,Mary.jpg,pieFS3.bmp,177995,183810,5815,z,1
219144,4,4,4,16,f,Jessica.jpg,pieFS4.bmp,191388,196823,5435,m,0
219144,5,4,4,16,m,Frank.jpg,pieFS4.bmp,204397,208608,4211,z,1
219144,6,4,1,4,m,James.jpg,pieFS4.bmp,216185,226062,9877,m,0
219144,7,5,1,9,m,Chris.jpg,pieFS5.bmp,233642,236687,3045,m,0
219144,8,2,5,7,m,Paul.jpg,pieFS2.bmp,244260,247203,2943,z,1
219144,9,3,3,7,m,Kevin.jpg,pieFS3.bmp,254777,258078,3301,z,1
219144,10,4,3,12,f,Sandra.jpg,pieFS4.bmp,265662,268548,2886,z,1
219144,11,1,9,9,m,David.jpg,pieFS1.bmp,276130,278158,2028,z,1
219144,12,4,2,8,f,Liz.jpg,pieFS4.bmp,285744,289051,3307,z,1
219144,13,1,8,8,f,Becky.jpg,pieFS1.bmp,296630,298474,1844,z,1
219144,14,5,2,18,f,Christina.jpg,pieFS5.bmp,306060,309271,3211,m,0
219144,15,3,5,11,m,Robert.jpg,pieFS3.bmp,316845,318806,1961,z,1
219144,16,5,2,18,m,Stephan.jpg,pieFS5.bmp,326393,328491,2098,m,0
219144,17,5,2,18,f,Jane.jpg,pieFS5.bmp,336074,337882,1808,m,0
219144,18,2,5,7,f,Laura.jpg,pieFS2.bmp,345455,346929,1474,z,1
219144,19,3,6,14,m,John.jpg,pieFS3.bmp,354501,356774,2273,z,1
219144,20,5,1,9,m,Michael.jpg,pieFS5.bmp,364349,366712,2363,m,0
219144,21,5,2,18,m,Eric.jpg,pieFS5.bmp,374281,377341,3060,m,0
219144,22,3,1,2,f,Susan.jpg,pieFS3.bmp,384916,387666,2750,z,1
219144,23,4,3,12,m,Richard.jpg,pieFS4.bmp,395249,398838,3589,m,0
219144,24,3,2,4,f,Anna.jpg,pieFS3.bmp,406419,408261,1842,z,1
219144,25,2,3,4,m,Tom.jpg,pieFS2.bmp,415833,417839,2006,z,1
219144,26,3,4,9,f,Michelle.jpg,pieFS3.bmp,425414,427324,1910,z,1
219471,1,4,4,16,f,Sandra.jpg,pieFS4.bmp,171491,176573,5082,p,0
219471,2,4,4,16,m,Chris.jpg,pieFS4.bmp,184193,187353,3160,p,0
219471,3,4,3,12,m,Richard.jpg,pieFS4.bmp,194981,198873,3892,q,1
219471,4,5,1,9,m,Michael.jpg,pieFS5.bmp,206501,209453,2952,p,0
219471,5,3,1,2,f,Jessica.jpg,pieFS3.bmp,217073,220393,3320,q,1
219471,6,4,1,4,f,Anita.jpg,pieFS4.bmp,228011,231033,3022,q,1
219471,7,3,4,9,f,Christina.jpg,pieFS3.bmp,238665,243553,4888,q,1
219471,8,3,3,7,m,Tom.jpg,pieFS3.bmp,251184,254773,3589,p,0
219471,9,5,2,18,m,Eric.jpg,pieFS5.bmp,262405,264613,2208,p,0
219471,10,1,9,9,m,Robert.jpg,pieFS1.bmp,272244,275313,3069,q,1
219471,11,3,6,14,m,Paul.jpg,pieFS3.bmp,282932,285253,2321,q,1
219471,12,4,1,4,m,David.jpg,pieFS4.bmp,292871,294833,1962,q,1
219471,13,1,8,8,f,Mary.jpg,pieFS1.bmp,302460,304733,2273,q,1
219471,14,2,5,7,m,Kevin.jpg,pieFS2.bmp,312366,314333,1967,q,1
219471,15,2,5,7,f,Anna.jpg,pieFS2.bmp,321955,323673,1718,q,1
219471,16,5,2,18,f,Becky.jpg,pieFS5.bmp,331294,332893,1599,p,0
219471,17,5,2,18,f,Silvia.jpg,pieFS5.bmp,340517,342733,2216,p,0
219471,18,5,1,9,m,Frank.jpg,pieFS5.bmp,350356,352773,2417,p,0
219471,19,5,2,18,m,John.jpg,pieFS5.bmp,360395,363753,3358,p,0
219471,20,3,2,4,f,Michelle.jpg,pieFS3.bmp,371383,373713,2330,q,1
219471,21,4,3,12,f,Liz.jpg,pieFS4.bmp,381338,385113,3775,p,0
219471,22,2,3,4,m,James.jpg,pieFS2.bmp,392742,394614,1872,q,1
219471,23,3,5,11,f,Laura.jpg,pieFS3.bmp,402248,403994,1746,q,1
219471,24,3,5,11,m,Stephan.jpg,pieFS3.bmp,411621,413254,1633,q,1
219471,25,5,1,9,f,Susan.jpg,pieFS5.bmp,420877,422714,1837,p,0
219471,26,4,2,8,f,Jane.jpg,pieFS4.bmp,430333,434174,3841,p,0
219675,1,3,5,11,m,Frank.jpg,pieFS3.bmp,834348,837836,3488,q,1
219675,2,3,6,14,m,John.jpg,pieFS3.bmp,845486,847276,1790,q,1
219675,3,3,3,7,m,Kevin.jpg,pieFS3.bmp,854909,856556,1647,q,1
219675,4,5,2,18,f,Becky.jpg,pieFS5.bmp,864182,865876,1694,q,1
219675,5,4,4,16,m,Paul.jpg,pieFS4.bmp,873505,875236,1731,q,1
219675,6,1,8,8,f,Jane.jpg,pieFS1.bmp,882861,884936,2075,q,1
219675,7,5,2,18,f,Sandra.jpg,pieFS5.bmp,892567,894157,1590,q,1
219675,8,5,1,9,m,James.jpg,pieFS5.bmp,901790,903577,1787,q,1
219675,9,5,2,18,m,Eric.jpg,pieFS5.bmp,911212,912817,1605,q,1
219675,10,3,4,9,f,Liz.jpg,pieFS3.bmp,920435,921937,1502,q,1
219675,11,1,9,9,m,Chris.jpg,pieFS1.bmp,929559,930877,1318,q,1
219675,12,4,3,12,f,Susan.jpg,pieFS4.bmp,938499,939997,1498,q,1
219675,13,5,1,9,f,Christina.jpg,pieFS5.bmp,947622,949377,1755,q,1
219675,14,3,2,4,f,Jessica.jpg,pieFS3.bmp,956995,958697,1702,q,1
219675,15,5,1,9,m,Robert.jpg,pieFS5.bmp,966317,967777,1460,q,1
219675,16,2,3,4,m,Richard.jpg,pieFS2.bmp,975407,976738,1331,q,1
219675,17,4,1,4,f,Anita.jpg,pieFS4.bmp,984381,986098,1717,q,1
219675,18,4,3,12,m,Stephan.jpg,pieFS4.bmp,993720,995218,1498,q,1
219675,19,2,5,7,f,Laura.jpg,pieFS2.bmp,1002843,1004698,1855,q,1
219675,20,4,1,4,m,Michael.jpg,pieFS4.bmp,1012316,1014058,1742,q,1
219675,21,4,4,16,f,Mary.jpg,pieFS4.bmp,1021689,1023178,1489,q,1
219675,22,2,5,7,m,Tom.jpg,pieFS2.bmp,1030795,1032178,1383,q,1
219675,23,5,2,18,m,David.jpg,pieFS5.bmp,1039802,1041658,1856,q,1
219675,24,4,2,8,f,Silvia.jpg,pieFS4.bmp,1049291,1051338,2047,q,1
219675,25,3,5,11,f,Anna.jpg,pieFS3.bmp,1058964,1060198,1234,q,1
219675,26,3,1,2,f,Michelle.jpg,pieFS3.bmp,1067821,1069039,1218,q,1
219698,1,3,5,11,f,Laura.jpg,pieFS3.bmp,340802,347049,6247,q,1
219698,2,5,1,9,m,Chris.jpg,pieFS5.bmp,354703,360549,5846,p,0
219698,3,5,2,18,f,Susan.jpg,pieFS5.bmp,368188,372589,4401,p,0
219698,4,3,2,4,f,Silvia.jpg,pieFS3.bmp,380224,385289,5065,q,1
219698,5,3,4,9,f,Michelle.jpg,pieFS3.bmp,392927,400249,7322,p,0
219698,6,4,1,4,f,Anna.jpg,pieFS4.bmp,407877,418370,10493,q,1
219698,7,5,2,18,m,Michael.jpg,pieFS5.bmp,426007,432190,6183,p,0
219698,8,1,8,8,f,Sandra.jpg,pieFS1.bmp,439824,442630,2806,q,1
219698,9,4,3,12,f,Mary.jpg,pieFS4.bmp,450263,457270,7007,q,1
219698,10,4,3,12,m,Paul.jpg,pieFS4.bmp,464896,472470,7574,p,0
219698,11,2,3,4,m,Frank.jpg,pieFS2.bmp,480096,482750,2654,q,1
219698,12,4,2,8,f,Christina.jpg,pieFS4.bmp,490385,495630,5245,q,1
219698,13,2,5,7,f,Liz.jpg,pieFS2.bmp,503254,505411,2157,q,1
219698,14,1,9,9,m,Stephan.jpg,pieFS1.bmp,513043,516491,3448,q,1
219698,15,4,4,16,m,Kevin.jpg,pieFS4.bmp,524130,532131,8001,q,1
219698,16,3,3,7,m,David.jpg,pieFS3.bmp,539763,547031,7268,p,0
219698,17,3,5,11,m,John.jpg,pieFS3.bmp,554663,558771,4108,q,1
219698,18,5,1,9,m,James.jpg,pieFS5.bmp,566400,570011,3611,p,0
219698,19,5,2,18,m,Robert.jpg,pieFS5.bmp,577670,580772,3102,p,0
219698,20,4,1,4,m,Richard.jpg,pieFS4.bmp,588408,590792,2384,q,1
219698,21,3,1,2,f,Anita.jpg,pieFS3.bmp,598431,600912,2481,q,1
219698,22,5,2,18,f,Becky.jpg,pieFS5.bmp,608553,614592,6039,p,0
219698,23,5,1,9,f,Jane.jpg,pieFS5.bmp,622221,625072,2851,q,1
219698,24,4,4,16,f,Jessica.jpg,pieFS4.bmp,632709,637032,4323,q,1
219698,25,3,6,14,m,Eric.jpg,pieFS3.bmp,644679,650292,5613,q,1
219698,26,2,5,7,m,Tom.jpg,pieFS2.bmp,657914,660252,2338,q,1
219772,1,4,3,12,m,David.jpg,pieFS4.bmp,226247,229852,3605,q,1
219772,2,5,1,9,m,John.jpg,pieFS5.bmp,237585,240272,2687,p,0
219772,3,4,2,8,f,Michelle.jpg,pieFS4.bmp,247923,267572,19649,p,0
219772,4,3,6,14,m,Michael.jpg,pieFS3.bmp,275210,278833,3623,q,1
219772,5,2,3,4,m,Tom.jpg,pieFS2.bmp,286481,289713,3232,q,1
219772,6,3,3,7,m,Eric.jpg,pieFS3.bmp,297369,300753,3384,p,0
219772,7,4,3,12,f,Jessica.jpg,pieFS4.bmp,308406,311133,2727,p,0
219772,8,5,2,18,f,Liz.jpg,pieFS5.bmp,318778,321114,2336,p,0
219772,9,3,1,2,f,Sandra.jpg,pieFS3.bmp,328767,332134,3367,q,1
219772,10,4,4,16,f,Susan.jpg,pieFS4.bmp,339771,342114,2343,p,0
219772,11,4,1,4,m,Kevin.jpg,pieFS4.bmp,349760,355394,5634,q,1
219772,12,5,2,18,m,James.jpg,pieFS5.bmp,363029,365274,2245,q,1
219772,13,5,1,9,f,Jane.jpg,pieFS5.bmp,372918,375855,2937,q,1
219772,14,3,2,4,f,Anita.jpg,pieFS3.bmp,383506,385895,2389,q,1
219772,15,3,4,9,f,Silvia.jpg,pieFS3.bmp,393545,395715,2170,q,1
219772,16,2,5,7,m,Stephan.jpg,pieFS2.bmp,403368,405395,2027,q,1
219772,17,1,9,9,m,Paul.jpg,pieFS1.bmp,413023,414995,1972,q,1
219772,18,1,8,8,f,Christina.jpg,pieFS1.bmp,422630,424755,2125,q,1
219772,19,3,5,11,m,Frank.jpg,pieFS3.bmp,432402,434356,1954,q,1
219772,20,2,5,7,f,Becky.jpg,pieFS2.bmp,442008,444356,2348,q,1
219772,21,4,4,16,m,Richard.jpg,pieFS4.bmp,451980,454316,2336,q,1
219772,22,3,5,11,f,Laura.jpg,pieFS3.bmp,461953,464216,2263,q,1
219772,23,5,2,18,m,Robert.jpg,pieFS5.bmp,471875,474996,3121,p,0
219772,24,5,2,18,f,Anna.jpg,pieFS5.bmp,482630,484937,2307,p,0
219772,25,5,1,9,m,Chris.jpg,pieFS5.bmp,492585,495077,2492,p,0
219772,26,4,1,4,f,Mary.jpg,pieFS4.bmp,502724,507957,5233,q,1
220041,1,4,2,8,f,Anna.jpg,pieFS4.bmp,251280,256530,5250,q,1
220041,2,5,2,18,m,Tom.jpg,pieFS5.bmp,264166,268370,4204,q,1
220041,3,4,4,16,f,Christina.jpg,pieFS4.bmp,276003,280250,4247,q,1
220041,4,4,3,12,m,John.jpg,pieFS4.bmp,287889,291630,3741,p,0
220041,5,2,3,4,m,Eric.jpg,pieFS2.bmp,299310,305630,6320,p,0
220041,6,5,2,18,f,Michelle.jpg,pieFS5.bmp,313278,318570,5292,p,0
220041,7,3,5,11,m,Richard.jpg,pieFS3.bmp,326213,331931,5718,p,0
220041,8,3,4,9,f,Silvia.jpg,pieFS3.bmp,339582,343431,3849,p,0
220041,9,5,1,9,f,Jessica.jpg,pieFS5.bmp,351085,353751,2666,p,0
220041,10,1,8,8,f,Sandra.jpg,pieFS1.bmp,361407,364331,2924,q,1
220041,11,4,3,12,f,Jane.jpg,pieFS4.bmp,371962,374531,2569,p,0
220041,12,3,6,14,m,Kevin.jpg,pieFS3.bmp,382151,387471,5320,p,0
220041,13,3,2,4,f,Susan.jpg,pieFS3.bmp,395103,397771,2668,p,0
220041,14,4,1,4,m,Paul.jpg,pieFS4.bmp,405441,407471,2030,p,0
220041,15,2,5,7,m,David.jpg,pieFS2.bmp,415147,418692,3545,p,0
220041,16,4,1,4,f,Anita.jpg,pieFS4.bmp,426385,428692,2307,p,0
220041,17,3,5,11,f,Becky.jpg,pieFS3.bmp,436357,439112,2755,p,0
220041,18,3,3,7,m,Robert.jpg,pieFS3.bmp,446778,448812,2034,p,0
220041,19,3,1,2,f,Liz.jpg,pieFS3.bmp,456468,459152,2684,p,0
220041,20,4,4,16,m,Frank.jpg,pieFS4.bmp,466823,469552,2729,p,0
220041,21,5,2,18,m,Stephan.jpg,pieFS5.bmp,477211,479872,2661,p,0
220041,22,5,1,9,m,James.jpg,pieFS5.bmp,487533,492632,5099,p,0
220041,23,5,1,9,m,Chris.jpg,pieFS5.bmp,500302,502173,1871,p,0
220041,24,2,5,7,f,Mary.jpg,pieFS2.bmp,509841,531953,22112,p,0
220041,25,1,9,9,m,Michael.jpg,pieFS1.bmp,539625,542053,2428,q,1
220041,26,5,2,18,f,Laura.jpg,pieFS5.bmp,549713,552453,2740,p,0
220043,1,4,3,12,m,Eric.jpg,pieFS4.bmp,345152,349580,4428,q,1
220043,2,5,2,18,m,John.jpg,pieFS5.bmp,357256,360120,2864,p,0
220043,3,3,5,11,f,Laura.jpg,pieFS3.bmp,367777,369580,1803,q,1
220043,4,3,3,7,m,Richard.jpg,pieFS3.bmp,377233,378760,1527,q,1
220043,5,2,5,7,f,Jane.jpg,pieFS2.bmp,386423,387740,1317,q,1
220043,6,4,3,12,f,Christina.jpg,pieFS4.bmp,395380,396960,1580,p,0
220043,7,3,6,14,m,Michael.jpg,pieFS3.bmp,404586,406020,1434,q,1
220043,8,5,2,18,f,Becky.jpg,pieFS5.bmp,413660,415161,1501,p,0
220043,9,5,2,18,f,Liz.jpg,pieFS5.bmp,422783,424421,1638,p,0
220043,10,5,1,9,f,Anita.jpg,pieFS5.bmp,432056,433681,1625,p,0
220043,11,4,1,4,m,Frank.jpg,pieFS4.bmp,441312,443161,1849,p,0
220043,12,2,3,4,m,James.jpg,pieFS2.bmp,450802,452761,1959,q,1
220043,13,4,1,4,f,Sandra.jpg,pieFS4.bmp,460391,463562,3171,p,0
220043,14,4,4,16,m,Kevin.jpg,pieFS4.bmp,471196,473702,2506,p,0
220043,15,1,8,8,f,Michelle.jpg,pieFS1.bmp,481335,484262,2927,q,1
220043,16,5,1,9,m,Chris.jpg,pieFS5.bmp,491889,493782,1893,p,0
220043,17,3,4,9,f,Silvia.jpg,pieFS3.bmp,501412,503542,2130,q,1
220043,18,3,1,2,f,Susan.jpg,pieFS3.bmp,511185,512583,1398,q,1
220043,19,4,2,8,f,Mary.jpg,pieFS4.bmp,520208,523283,3075,p,0
220043,20,4,4,16,f,Anna.jpg,pieFS4.bmp,530913,535163,4250,q,1
220043,21,3,5,11,m,Tom.jpg,pieFS3.bmp,542800,545103,2303,q,1
220043,22,2,5,7,m,David.jpg,pieFS2.bmp,552739,554363,1624,q,1
220043,23,3,2,4,f,Jessica.jpg,pieFS3.bmp,561995,563923,1928,q,1
220043,24,5,2,18,m,Stephan.jpg,pieFS5.bmp,571568,573724,2156,p,0
220043,25,5,1,9,m,Paul.jpg,pieFS5.bmp,581374,582824,1450,p,0
220043,26,1,9,9,m,Robert.jpg,pieFS1.bmp,590530,591924,1394,q,1
220104,1,3,6,14,m,Richard.jpg,pieFS3.bmp,347343,350204,2861,q,1
220104,2,1,9,9,m,Michael.jpg,pieFS1.bmp,357848,359684,1836,q,1
220104,3,4,2,8,f,Silvia.jpg,pieFS4.bmp,367321,369064,1743,q,1
220104,4,4,1,4,m,Stephan.jpg,pieFS4.bmp,376694,378685,1991,q,1
220104,5,5,2,18,m,Chris.jpg,pieFS5.bmp,386316,387885,1569,q,1
220104,6,5,2,18,f,Mary.jpg,pieFS5.bmp,395540,397385,1845,q,1
220104,7,4,1,4,f,Liz.jpg,pieFS4.bmp,405046,406465,1419,q,1
220104,8,4,4,16,f,Sandra.jpg,pieFS4.bmp,414136,415725,1589,q,1
220104,9,3,5,11,m,Paul.jpg,pieFS3.bmp,423409,424766,1357,q,1
220104,10,4,3,12,m,James.jpg,pieFS4.bmp,432449,433786,1337,q,1
220104,11,3,2,4,f,Anita.jpg,pieFS3.bmp,441472,443006,1534,q,1
