id,Trial_Number,Fairness_score,PlayerProposedAmount,OpponentProposedAmount,TotalAmountAtStake,Gender,StimulusCentre,StakeImg,ReappraisalText,ReappraisalDirection,PunishingType,Stimuli_OnsetTime,Stimuli_RTTime,Stimuli_RT,Stimuli_RESP,AcceptOffer
115105,1,4,2,8,10,f,Sharon.jpg,pieFS4.bmp,Sharon cannot afford to send her son to college.,2,na,44329,54798,10469,q,1
115105,2,4,4,16,20,m,Sam.jpg,pieFS4.bmp,Sam lost his house in a fire,2,na,67003,70811,3808,q,1
115105,3,1,5,5,10,f,Emma.jpg,pieFS1.bmp,Emma regularly fires employees to avoid promoting them.,1,reputation,83005,85491,2486,q,1
115105,4,3,3,7,10,m,Edward.jpg,pieFS3.bmp,Edward bullies his employees to put in extra hours at work.,1,reputation,97702,103692,5990,p,0
115105,5,3,3,7,10,f,Janet.jpg,pieFS3.bmp,Janet secretly gambles with her husband's savings.,1,reputation,115895,117103,1208,p,0
115105,6,5,2,18,20,m,Daniel.jpg,pieFS5.bmp,Daniel just lost his job,2,na,129288,132514,3226,q,1
115105,7,4,4,16,20,f,Trish.jpg,pieFS4.bmp,Trish claims false expenses for her reportable work travel.,1,reputation,144688,149801,5113,p,0
115105,8,1,9,9,18,m,Nick.jpg,pieFS1.bmp,Nick just found $50 on the street,1,resources,161994,164252,2258,q,1
115105,9,2,7,10,17,f,Cindy.jpg,pieFS2.bmp,Cindy's car with her bag and credit cards was recently stolen.,2,na,176458,180044,3586,q,1
115105,10,3,4,9,13,m,Joe.jpg,pieFS3.bmp,Joe employs illegal immigrants and pays them less than minimum wage.,1,reputation,192242,194406,2164,p,0
115105,11,5,1,9,10,f,Deborah.jpg,pieFS5.bmp,Deborah just found out that her husband has incurred a large credit card debt.,2,na,206606,209424,2818,p,0
115105,12,5,1,9,10,f,Jenny.jpg,pieFS5.bmp,Jenny is a highly paid actress,1,resources,221604,224831,3227,p,0
115105,13,3,6,14,20,m,Justin.jpg,pieFS3.bmp,Justin could not afford his mortgage and his home was foreclosed.,2,na,237038,239179,2141,q,1
115105,14,2,6,9,15,m,Mark.jpg,pieFS2.bmp,Mark is homeless,2,na,251351,255454,4103,q,1
115105,15,5,1,9,10,m,Ben.jpg,pieFS5.bmp,Ben is saving to pay his university fees,2,na,267654,273453,5799,q,1
115105,16,4,1,4,5,f,Mary.jpg,pieFS4.bmp,Mary works as a cleaner in a hotel,2,na,285645,290928,5283,q,1
115105,17,4,4,16,20,f,Miriam.jpg,pieFS4.bmp,Miriam's husband is a wealthy investment banker,1,resources,303118,305626,2508,p,0
115105,18,3,4,9,13,m,Darnell.jpg,pieFS3.bmp,Darnell lives in a luxury penthouse apartment,1,resources,317816,320626,2810,q,1
115105,19,3,3,7,10,f,Beth.jpg,pieFS3.bmp,Beth can't afford to pay her medical bills,2,na,332831,334820,1989,q,1
115105,20,5,1,9,10,f,Joanna.jpg,pieFS5.bmp,Joanna has to take an unpaid leave of absence because her mother broke her hip.,2,na,347011,349913,2902,p,0
115105,21,2,3,4,7,f,Kelly.jpg,pieFS2.bmp,Kelly got a large cash bonus from her boss,1,resources,362093,364030,1937,q,1
115105,22,4,3,12,15,m,Saul.jpg,pieFS4.bmp,Saul stole money from his mother's wallet.,1,reputation,376222,378393,2171,p,0
115105,23,1,10,10,20,f,Marny.jpg,pieFS1.bmp,Marny was a victim of identity theft and is now thousands of dollars in debt.,2,na,390602,394049,3447,q,1
115105,24,4,3,12,15,f,Maria.jpg,pieFS4.bmp,Maria works two waitressing jobs to pay her bills.,2,na,406253,408092,1839,q,1
115105,25,3,2,4,6,f,Eileen.jpg,pieFS3.bmp,Eileen just received a huge cash settlement,1,resources,420282,421967,1685,q,1
115105,26,3,2,4,6,f,Arianna.jpg,pieFS3.bmp,Arianna is going to be evicted because she is behind on her rent,2,na,434177,436591,2414,q,1
115105,27,4,3,12,15,f,Fiona.jpg,pieFS4.bmp,Fiona owns an international company,1,resources,448791,453858,5067,p,0
115105,28,4,2,8,10,f,Sammy.jpg,pieFS4.bmp,Sammy takes discarded food from grocery stores to feed her children.,2,na,466047,468483,2436,q,1
115105,29,2,6,9,15,m,Alan.jpg,pieFS2.bmp,Alan is hiding his taxable income in Switzerland.,1,reputation,480677,482582,1905,q,1
115105,30,4,1,4,5,m,Stuart.jpg,pieFS4.bmp,Stuart lost his life savings when his small business failed,2,na,494773,499158,4385,p,0
115105,31,5,2,18,20,m,Peter.jpg,pieFS5.bmp,Peter cheated on his taxes and is now under investigation for tax fraud.,1,reputation,511360,514438,3078,p,0
115105,32,4,3,12,15,m,Jack.jpg,pieFS4.bmp,Jack is a veteran having trouble finding employment.,2,na,526660,528912,2252,q,1
115105,33,2,8,12,20,f,Kay.jpg,pieFS2.bmp,Kay received a large inheritance from a distant relative,1,resources,541107,542843,1736,q,1
115105,34,4,1,4,5,m,Taymar.jpg,pieFS4.bmp,Taymar underreports his company's earnings and pockets the profits.,1,reputation,555035,557523,2488,p,0
115105,35,5,1,9,10,f,Emily.jpg,pieFS5.bmp,Emily steals her coworkers' tips to buy alcohol.,1,reputation,569716,570536,820,p,0
115105,36,3,4,9,13,m,Ian.jpg,pieFS3.bmp,Ian stole his elderly father's prescription medications.,1,reputation,582725,585287,2562,p,0
115105,37,1,8,8,16,m,Kevin.jpg,pieFS1.bmp,Kevin declared bankruptcy after he was laid off.,2,na,597456,599166,1710,q,1
115105,38,5,2,18,20,m,Tony.jpg,pieFS5.bmp,Tony takes valuables from his friends' homes when asked to house-sit.,1,reputation,611368,616115,4747,p,0
115105,39,3,2,4,6,f,Louise.jpg,pieFS3.bmp,Louise is a single mother,2,na,628306,629839,1533,q,1
115105,40,5,2,18,20,f,Fay.jpg,pieFS5.bmp,Fay just won the lottery,1,resources,642017,643541,1524,p,0
115105,41,5,2,18,20,m,Don.jpg,pieFS5.bmp,Don was injured in a hit-and-run accident and cannot afford his medical bills.,2,na,655745,658901,3156,q,1
115105,42,4,2,8,10,m,George.jpg,pieFS4.bmp,George is a well paid lawyer,1,resources,671095,673527,2432,p,0
115105,43,5,1,9,10,m,Michael.jpg,pieFS5.bmp,Michael was mugged and had his wallet stolen.,2,na,685726,687681,1955,p,0
115105,44,5,1,9,10,f,Jackie.jpg,pieFS5.bmp,Jackie just lost her small business after a franchise moved in next door.,2,na,699871,701701,1830,p,0
115105,45,3,6,14,20,m,Paul.jpg,pieFS3.bmp,Paul is a retiree,2,na,713917,716011,2094,q,1
115105,46,3,5,11,16,f,Lauren.jpg,pieFS3.bmp,Lauren used her mother's social security number to open a credit card account.,1,reputation,728230,731761,3531,q,1
115105,47,3,2,4,6,f,Monica.jpg,pieFS3.bmp,Monica is raising money to buy gifts for children in need.,2,na,743981,746104,2123,q,1
115105,48,4,2,8,10,m,Jared.jpg,pieFS4.bmp,Jared just bought an expensive sports car,1,resources,758294,761980,3686,p,0
115105,49,5,1,9,10,f,Jean.jpg,pieFS5.bmp,Jean illegally parks in the disabled parking spots when she can.,1,reputation,774196,775766,1570,p,0
115105,50,5,1,9,10,m,Matt.jpg,pieFS5.bmp,Matt often goes through and steals the neighbors' mail.,1,reputation,787957,789416,1459,p,0
115105,51,2,3,4,7,m,Ricky.jpg,pieFS2.bmp,Ricky is saving for his son's operation,2,na,801635,802783,1148,q,1
115105,52,3,5,11,16,m,Brad.jpg,pieFS3.bmp,Brad has been unable to find a job for over a year.,2,na,814978,816409,1431,q,1
115251,1,3,4,9,13,m,Taymar.jpg,pieFS3.bmp,Taymar is a well paid lawyer,1,resources,41262,46631,5369,q,1
115251,2,5,1,9,10,f,Miriam.jpg,pieFS5.bmp,Miriam secretly gambles with her husband's savings.,1,reputation,58909,61531,2622,p,0
115251,3,1,10,10,20,f,Eileen.jpg,pieFS1.bmp,Eileen works two waitressing jobs to pay her bills.,2,na,73809,75611,1802,q,1
115251,4,1,5,5,10,f,Trish.jpg,pieFS1.bmp,Trish claims false expenses for her reportable work travel.,1,reputation,87876,92331,4455,q,1
115251,5,2,6,9,15,m,George.jpg,pieFS2.bmp,George is a retiree,2,na,104574,108731,4157,q,1
115251,6,4,2,8,10,m,Justin.jpg,pieFS4.bmp,Justin just bought an expensive sports car,1,resources,120956,122951,1995,p,0
115251,7,4,3,12,15,f,Joanna.jpg,pieFS4.bmp,Joanna just received a huge cash settlement,1,resources,135173,137591,2418,q,1
115251,8,3,6,14,20,m,Nick.jpg,pieFS3.bmp,Nick is homeless,2,na,149840,150511,671,p,0
115251,9,3,3,7,10,f,Janet.jpg,pieFS3.bmp,Janet works as a cleaner in a hotel,2,na,162759,165771,3012,q,1
115251,10,5,2,18,20,m,Brad.jpg,pieFS5.bmp,Brad is saving to pay his university fees,2,na,178025,184671,6646,q,1
115251,11,3,4,9,13,m,Peter.jpg,pieFS3.bmp,Peter lives in a luxury penthouse apartment,1,resources,196937,201371,4434,q,1
115251,12,5,1,9,10,f,Deborah.jpg,pieFS5.bmp,Deborah takes discarded food from grocery stores to feed her children.,2,na,213635,215951,2316,q,1
115251,13,2,3,4,7,m,Alan.jpg,pieFS2.bmp,Alan is saving for his son's operation,2,na,228202,229211,1009,q,1
115251,14,3,2,4,6,f,Marny.jpg,pieFS3.bmp,Marny steals her coworkers' tips to buy alcohol.,1,reputation,241487,242211,724,p,0
115251,15,3,2,4,6,f,Emily.jpg,pieFS3.bmp,Emily just lost her small business after a franchise moved in next door.,2,na,254489,257232,2743,q,1
115251,16,5,1,9,10,m,Jared.jpg,pieFS5.bmp,Jared bullies his employees to put in extra hours at work.,1,reputation,269522,270331,809,p,0
115251,17,4,4,16,20,f,Fay.jpg,pieFS4.bmp,Fay's husband is a wealthy investment banker,1,resources,282607,282872,265,q,1
115251,18,3,3,7,10,f,Monica.jpg,pieFS3.bmp,Monica used her mother's social security number to open a credit card account.,1,reputation,295143,296951,1808,p,0
115251,19,4,1,4,5,m,Don.jpg,pieFS4.bmp,Don stole money from his mother's wallet.,1,reputation,309211,316832,7621,p,0
115251,20,4,1,4,5,f,Lauren.jpg,pieFS4.bmp,Lauren is raising money to buy gifts for children in need.,2,na,329088,329752,664,q,1
115251,21,5,2,18,20,m,Daniel.jpg,pieFS5.bmp,Daniel just lost his job,2,na,342007,350752,8745,p,0
115251,22,2,3,4,7,f,Jean.jpg,pieFS2.bmp,Jean illegally parks in the disabled parking spots when she can.,1,reputation,363050,364952,1902,q,1
115251,23,4,2,8,10,f,Beth.jpg,pieFS4.bmp,Beth can't afford to pay her medical bills,2,na,377201,377272,71,p,0
115251,24,4,3,12,15,m,Tony.jpg,pieFS4.bmp,Tony lost his life savings when his small business failed,2,na,389504,391672,2168,q,1
115251,25,3,3,7,10,m,Sam.jpg,pieFS3.bmp,Sam cheated on his taxes and is now under investigation for tax fraud.,1,reputation,403904,405672,1768,p,0
115251,26,4,3,12,15,f,Arianna.jpg,pieFS4.bmp,Arianna is going to be evicted because she is behind on her rent,2,na,417905,422452,4547,q,1
115251,27,5,1,9,10,f,Fiona.jpg,pieFS5.bmp,Fiona owns an international company,1,resources,434703,437612,2909,q,1
115251,28,4,4,16,20,m,Matt.jpg,pieFS4.bmp,Matt is a veteran having trouble finding employment.,2,na,449869,453992,4123,q,1
115251,29,3,2,4,6,f,Kelly.jpg,pieFS3.bmp,Kelly's car with her bag and credit cards was recently stolen.,2,na,466267,468352,2085,p,0
115251,30,3,5,11,16,f,Emma.jpg,pieFS3.bmp,Emma received a large inheritance from a distant relative,1,resources,480601,481312,711,q,1
115251,31,2,6,9,15,m,Darnell.jpg,pieFS2.bmp,Darnell stole his elderly father's prescription medications.,1,reputation,493603,495092,1489,p,0
115251,32,1,8,8,16,m,Saul.jpg,pieFS1.bmp,Saul declared bankruptcy after he was laid off.,2,na,507371,509392,2021,q,1
115251,33,4,2,8,10,f,Maria.jpg,pieFS4.bmp,Maria just found out that her husband has incurred a large credit card debt.,2,na,521672,523892,2220,q,1
115251,34,4,3,12,15,m,Michael.jpg,pieFS4.bmp,Michael takes valuables from his friends' homes when asked to house-sit.,1,reputation,536172,537472,1300,p,0
115251,35,5,1,9,10,m,Ian.jpg,pieFS5.bmp,Ian was injured in a hit-and-run accident and cannot afford his medical bills.,2,na,549740,550272,532,q,1
115251,36,4,1,4,5,m,Mark.jpg,pieFS4.bmp,Mark was mugged and had his wallet stolen.,2,na,562543,567232,4689,q,1
115251,37,5,2,18,20,m,Paul.jpg,pieFS5.bmp,Paul employs illegal immigrants and pays them less than minimum wage.,1,reputation,579507,582752,3245,q,1
115251,38,2,8,12,20,f,Cindy.jpg,pieFS2.bmp,Cindy is a highly paid actress,1,resources,595006,598072,3066,q,1
115251,39,5,1,9,10,f,Jenny.jpg,pieFS5.bmp,Jenny has to take an unpaid leave of absence because her mother broke her hip.,2,na,610355,612112,1757,q,1
115251,40,1,9,9,18,m,Ben.jpg,pieFS1.bmp,Ben often goes through and steals the neighbors' mail.,1,reputation,624373,625192,819,p,0
115251,41,3,5,11,16,m,Edward.jpg,pieFS3.bmp,Edward could not afford his mortgage and his home was foreclosed.,2,na,637442,638552,1110,q,1
115251,42,3,6,14,20,m,Jack.jpg,pieFS3.bmp,Jack has been unable to find a job for over a year.,2,na,650793,651092,299,q,1
115251,43,3,4,9,13,m,Ricky.jpg,pieFS3.bmp,Ricky is hiding his taxable income in Switzerland.,1,reputation,663346,668093,4747,p,0
115251,44,5,2,18,20,f,Jackie.jpg,pieFS5.bmp,Jackie got a large cash bonus from her boss,1,resources,680343,681353,1010,p,0
115251,45,3,2,4,6,f,Sharon.jpg,pieFS3.bmp,Sharon is a single mother,2,na,693612,699913,6301,q,1
115251,46,5,1,9,10,m,Kevin.jpg,pieFS5.bmp,Kevin lost his house in a fire,2,na,712191,712893,702,q,1
115251,47,5,2,18,20,m,Stuart.jpg,pieFS5.bmp,Stuart just found $50 on the street,1,resources,725143,727753,2610,q,1
115251,48,4,4,16,20,f,Louise.jpg,pieFS4.bmp,Louise just won the lottery,1,resources,740026,743353,3327,p,0
115251,49,5,1,9,10,f,Kay.jpg,pieFS5.bmp,Kay cannot afford to send her son to college.,2,na,755625,757133,1508,q,1
115251,50,4,2,8,10,m,Joe.jpg,pieFS4.bmp,Joe underreports his company's earnings and pockets the profits.,1,reputation,769410,770973,1563,p,0
115251,51,2,7,10,17,f,Sammy.jpg,pieFS2.bmp,Sammy was a victim of identity theft and is now thousands of dollars in debt.,2,na,783244,784573,1329,q,1
115251,52,5,1,9,10,f,Mary.jpg,pieFS5.bmp,Mary regularly fires employees to avoid promoting them.,1,reputation,796846,798333,1487,p,0
115300,1,2,6,9,15,m,Mark.jpg,pieFS2.bmp,Mark is saving to pay his university fees,2,na,124637,142879,18242,q,1
115300,2,4,4,16,20,f,Monica.jpg,pieFS4.bmp,Monica illegally parks in the disabled parking spots when she can.,1,reputation,155069,161939,6870,q,1
115300,3,3,2,4,6,f,Joanna.jpg,pieFS3.bmp,Joanna's car with her bag and credit cards was recently stolen.,2,na,174131,177779,3648,p,0
115300,4,2,6,9,15,m,Brad.jpg,pieFS2.bmp,Brad lives in a luxury penthouse apartment,1,resources,189980,192839,2859,q,1
115300,5,4,2,8,10,m,Saul.jpg,pieFS4.bmp,Saul stole money from his mother's wallet.,1,reputation,205030,208779,3749,p,0
115300,6,4,2,8,10,m,Edward.jpg,pieFS4.bmp,Edward underreports his company's earnings and pockets the profits.,1,reputation,220978,223419,2441,p,0
115300,7,5,1,9,10,f,Jenny.jpg,pieFS5.bmp,Jenny just found out that her husband has incurred a large credit card debt.,2,na,235612,237439,1827,q,1
115300,8,5,2,18,20,f,Arianna.jpg,pieFS5.bmp,Arianna claims false expenses for her reportable work travel.,1,reputation,249629,252539,2910,q,1
115300,9,4,3,12,15,f,Kelly.jpg,pieFS4.bmp,Kelly is a highly paid actress,1,resources,264729,272879,8150,q,1
115300,10,3,5,11,16,m,Darnell.jpg,pieFS3.bmp,Darnell lost his life savings when his small business failed,2,na,285073,287159,2086,p,0
115300,11,4,3,12,15,m,Matt.jpg,pieFS4.bmp,Matt cheated on his taxes and is now under investigation for tax fraud.,1,reputation,299340,303079,3739,p,0
115300,12,4,1,4,5,f,Jean.jpg,pieFS4.bmp,Jean has to take an unpaid leave of absence because her mother broke her hip.,2,na,315256,317939,2683,q,1
115300,13,2,3,4,7,m,Nick.jpg,pieFS2.bmp,Nick is a veteran having trouble finding employment.,2,na,330139,333339,3200,p,0
115300,14,5,2,18,20,m,Peter.jpg,pieFS5.bmp,Peter stole his elderly father's prescription medications.,1,reputation,345505,350440,4935,p,0
115300,15,4,4,16,20,f,Lauren.jpg,pieFS4.bmp,Lauren got a large cash bonus from her boss,1,resources,362602,367520,4918,q,1
115300,16,5,1,9,10,f,Eileen.jpg,pieFS5.bmp,Eileen was a victim of identity theft and is now thousands of dollars in debt.,2,na,379683,381840,2157,q,1
115300,17,3,3,7,10,f,Miriam.jpg,pieFS3.bmp,Miriam works as a cleaner in a hotel,2,na,394000,400000,6000,p,0
115300,18,1,5,5,10,f,Kay.jpg,pieFS1.bmp,Kay's husband is a wealthy investment banker,1,resources,412163,415860,3697,q,1
115300,19,4,3,12,15,m,Michael.jpg,pieFS4.bmp,Michael declared bankruptcy after he was laid off.,2,na,428012,432620,4608,q,1
115300,20,1,10,10,20,f,Beth.jpg,pieFS1.bmp,Beth can't afford to pay her medical bills,2,na,444777,447720,2943,q,1
115300,21,5,1,9,10,m,Joe.jpg,pieFS5.bmp,Joe is a well paid lawyer,1,resources,459876,467200,7324,p,0
115300,22,3,2,4,6,f,Janet.jpg,pieFS3.bmp,Janet is going to be evicted because she is behind on her rent,2,na,479355,481500,2145,q,1
115300,23,3,4,9,13,m,Tony.jpg,pieFS3.bmp,Tony takes valuables from his friends' homes when asked to house-sit.,1,reputation,493672,495560,1888,q,1
115300,24,4,3,12,15,f,Jackie.jpg,pieFS4.bmp,Jackie works two waitressing jobs to pay her bills.,2,na,507723,511840,4117,q,1
115300,25,3,3,7,10,f,Fiona.jpg,pieFS3.bmp,Fiona owns an international company,1,resources,523988,526840,2852,q,1
115300,26,5,1,9,10,f,Emma.jpg,pieFS5.bmp,Emma received a large inheritance from a distant relative,1,resources,538987,541360,2373,p,0
115300,27,2,3,4,7,f,Maria.jpg,pieFS2.bmp,Maria just received a huge cash settlement,1,resources,553521,556080,2559,q,1
115300,28,5,2,18,20,m,Jack.jpg,pieFS5.bmp,Jack was injured in a hit-and-run accident and cannot afford his medical bills.,2,na,568255,571120,2865,p,0
115300,29,3,2,4,6,f,Marny.jpg,pieFS3.bmp,Marny takes discarded food from grocery stores to feed her children.,2,na,583288,585380,2092,q,1
115300,30,4,4,16,20,m,Kevin.jpg,pieFS4.bmp,Kevin was mugged and had his wallet stolen.,2,na,597572,601041,3469,q,1
115300,31,1,9,9,18,m,Ben.jpg,pieFS1.bmp,Ben often goes through and steals the neighbors' mail.,1,reputation,613221,615840,2619,q,1
115300,32,5,2,18,20,m,Ian.jpg,pieFS5.bmp,Ian has been unable to find a job for over a year.,2,na,627987,632340,4353,p,0
115300,33,3,2,4,6,f,Cindy.jpg,pieFS3.bmp,Cindy steals her coworkers' tips to buy alcohol.,1,reputation,644502,646440,1938,q,1
115300,34,4,1,4,5,m,Justin.jpg,pieFS4.bmp,Justin is a retiree,2,na,658603,664421,5818,q,1
115300,35,3,4,9,13,m,Jared.jpg,pieFS3.bmp,Jared just bought an expensive sports car,1,resources,676599,681861,5262,q,1
115300,36,4,2,8,10,f,Sammy.jpg,pieFS4.bmp,Sammy just lost her small business after a franchise moved in next door.,2,na,694046,696440,2394,p,0
115300,37,2,8,12,20,f,Emily.jpg,pieFS2.bmp,Emily used her mother's social security number to open a credit card account.,1,reputation,708630,711141,2511,q,1
115300,38,4,2,8,10,f,Fay.jpg,pieFS4.bmp,Fay is a single mother,2,na,723330,729361,6031,p,0
115300,39,5,1,9,10,f,Mary.jpg,pieFS5.bmp,Mary just won the lottery,1,resources,741560,747261,5701,p,0
115300,40,3,6,14,20,m,Alan.jpg,pieFS3.bmp,Alan is saving for his son's operation,2,na,759456,761321,1865,q,1
115300,41,3,3,7,10,m,George.jpg,pieFS3.bmp,George bullies his employees to put in extra hours at work.,1,reputation,773507,775661,2154,p,0
115300,42,3,6,14,20,m,Ricky.jpg,pieFS3.bmp,Ricky just lost his job,2,na,787858,790021,2163,q,1
115300,43,3,4,9,13,m,Paul.jpg,pieFS3.bmp,Paul employs illegal immigrants and pays them less than minimum wage.,1,reputation,802208,804301,2093,p,0
115300,44,1,8,8,16,m,Stuart.jpg,pieFS1.bmp,Stuart lost his house in a fire,2,na,816492,817921,1429,q,1
115300,45,5,1,9,10,m,Daniel.jpg,pieFS5.bmp,Daniel could not afford his mortgage and his home was foreclosed.,2,na,830110,832501,2391,p,0
115300,46,5,2,18,20,m,Don.jpg,pieFS5.bmp,Don just found $50 on the street,1,resources,844694,848841,4147,p,0
115300,47,2,7,10,17,f,Louise.jpg,pieFS2.bmp,Louise cannot afford to send her son to college.,2,na,861042,862561,1519,q,1
115300,48,5,1,9,10,f,Deborah.jpg,pieFS5.bmp,Deborah is raising money to buy gifts for children in need.,2,na,874760,878101,3341,q,1
115300,49,4,1,4,5,m,Taymar.jpg,pieFS4.bmp,Taymar is hiding his taxable income in Switzerland.,1,reputation,890292,891641,1349,p,0
115300,50,5,1,9,10,f,Sharon.jpg,pieFS5.bmp,Sharon regularly fires employees to avoid promoting them.,1,reputation,903844,906101,2257,p,0
115300,51,3,5,11,16,f,Trish.jpg,pieFS3.bmp,Trish secretly gambles with her husband's savings.,1,reputation,918294,920541,2247,q,1
115300,52,5,1,9,10,m,Sam.jpg,pieFS5.bmp,Sam is homeless,2,na,932745,935521,2776,p,0
202200,1,1,10,10,20,f,Trish.jpg,pieFS1.bmp,Trish is going to be evicted because she is behind on her rent,2,na,49402,53951,4549,q,1
202200,2,3,3,7,10,f,Beth.jpg,pieFS3.bmp,Beth owns an international company,1,resources,66123,69288,3165,q,1
202200,3,5,1,9,10,m,Peter.jpg,pieFS5.bmp,Peter cheated on his taxes and is now under investigation for tax fraud.,1,reputation,81490,83988,2498,p,0
202200,4,2,3,4,7,f,Sharon.jpg,pieFS2.bmp,Sharon received a large inheritance from a distant relative,1,resources,96187,98462,2275,q,1
202200,5,4,3,12,15,m,Darnell.jpg,pieFS4.bmp,Darnell is a veteran having trouble finding employment.,2,na,110651,114418,3767,p,0
202200,6,4,2,8,10,m,Tony.jpg,pieFS4.bmp,Tony stole his elderly father's prescription medications.,1,reputation,126619,129155,2536,p,0
202200,7,5,2,18,20,m,George.jpg,pieFS5.bmp,George underreports his company's earnings and pockets the profits.,1,reputation,141350,143649,2299,p,0
202200,8,5,1,9,10,f,Miriam.jpg,pieFS5.bmp,Miriam is a single mother,2,na,155847,158104,2257,p,0
202200,9,5,1,9,10,f,Janet.jpg,pieFS5.bmp,Janet just won the lottery,1,resources,170311,172334,2023,p,0
202200,10,3,3,7,10,f,Monica.jpg,pieFS3.bmp,Monica has to take an unpaid leave of absence because her mother broke her hip.,2,na,184524,186509,1985,q,1
202200,11,3,6,14,20,m,Ian.jpg,pieFS3.bmp,Ian declared bankruptcy after he was laid off.,2,na,198686,201602,2916,p,0
202200,12,2,6,9,15,m,Edward.jpg,pieFS2.bmp,Edward is a well paid lawyer,1,resources,213802,215888,2086,q,1
202200,13,3,4,9,13,m,Sam.jpg,pieFS3.bmp,Sam takes valuables from his friends' homes when asked to house-sit.,1,reputation,228065,230269,2204,p,0
202200,14,4,3,12,15,f,Eileen.jpg,pieFS4.bmp,Eileen got a large cash bonus from her boss,1,resources,242445,244688,2243,p,0
202200,15,4,2,8,10,f,Lauren.jpg,pieFS4.bmp,Lauren was a victim of identity theft and is now thousands of dollars in debt.,2,na,256842,259195,2353,p,0
202200,16,4,2,8,10,f,Jean.jpg,pieFS4.bmp,Jean works two waitressing jobs to pay her bills.,2,na,271389,273768,2379,q,1
202200,17,2,8,12,20,f,Sammy.jpg,pieFS2.bmp,Sammy just received a huge cash settlement,1,resources,285953,287849,1896,q,1
202200,18,1,8,8,16,m,Don.jpg,pieFS1.bmp,Don was injured in a hit-and-run accident and cannot afford his medical bills.,2,na,300048,302980,2932,q,1
202200,19,4,4,16,20,m,Daniel.jpg,pieFS4.bmp,Daniel is a retiree,2,na,315181,317056,1875,p,0
202200,20,2,6,9,15,m,Brad.jpg,pieFS2.bmp,Brad was mugged and had his wallet stolen.,2,na,329243,331366,2123,q,1
202200,21,4,3,12,15,f,Marny.jpg,pieFS4.bmp,Marny takes discarded food from grocery stores to feed her children.,2,na,343556,346009,2453,q,1
202200,22,3,3,7,10,m,Taymar.jpg,pieFS3.bmp,Taymar just bought an expensive sports car,1,resources,358204,359770,1566,p,0
202200,23,1,9,9,18,m,Matt.jpg,pieFS1.bmp,Matt often goes through and steals the neighbors' mail.,1,reputation,371965,373903,1938,p,0
202200,24,2,7,10,17,f,Fiona.jpg,pieFS2.bmp,Fiona cannot afford to send her son to college.,2,na,386094,388008,1914,q,1
202200,25,4,4,16,20,f,Cindy.jpg,pieFS4.bmp,Cindy steals her coworkers' tips to buy alcohol.,1,reputation,400206,402166,1960,p,0
202200,26,5,2,18,20,m,Jared.jpg,pieFS5.bmp,Jared is saving for his son's operation,2,na,414369,415906,1537,p,0
202200,27,3,4,9,13,m,Ricky.jpg,pieFS3.bmp,Ricky bullies his employees to put in extra hours at work.,1,reputation,428080,430863,2783,p,0
202200,28,4,1,4,5,m,Kevin.jpg,pieFS4.bmp,Kevin has been unable to find a job for over a year.,2,na,443079,445437,2358,q,1
202200,29,5,1,9,10,f,Kay.jpg,pieFS5.bmp,Kay regularly fires employees to avoid promoting them.,1,reputation,457609,459668,2059,p,0
202200,30,4,1,4,5,f,Kelly.jpg,pieFS4.bmp,Kelly just lost her small business after a franchise moved in next door.,2,na,471872,474086,2214,p,0
202200,31,3,5,11,16,m,Saul.jpg,pieFS3.bmp,Saul lost his house in a fire,2,na,486285,488223,1938,q,1
202200,32,4,4,16,20,f,Maria.jpg,pieFS4.bmp,Maria used her mother's social security number to open a credit card account.,1,reputation,500415,502135,1720,p,0
202200,33,5,1,9,10,f,Arianna.jpg,pieFS5.bmp,Arianna secretly gambles with her husband's savings.,1,reputation,514326,516028,1702,p,0
202200,34,5,2,18,20,m,Joe.jpg,pieFS5.bmp,Joe just lost his job,2,na,528188,530370,2182,q,1
202200,35,5,1,9,10,f,Emily.jpg,pieFS5.bmp,Emily is raising money to buy gifts for children in need.,2,na,542568,544508,1940,p,0
202200,36,4,2,8,10,m,Paul.jpg,pieFS4.bmp,Paul employs illegal immigrants and pays them less than minimum wage.,1,reputation,556697,558003,1306,p,0
202200,37,5,2,18,20,f,Jenny.jpg,pieFS5.bmp,Jenny illegally parks in the disabled parking spots when she can.,1,reputation,570191,572013,1822,p,0
202200,38,4,3,12,15,m,Ben.jpg,pieFS4.bmp,Ben just found $50 on the street,1,resources,584203,586075,1872,p,0
202200,39,3,2,4,6,f,Deborah.jpg,pieFS3.bmp,Deborah's car with her bag and credit cards was recently stolen.,2,na,598248,600156,1908,q,1
202200,40,5,1,9,10,m,Alan.jpg,pieFS5.bmp,Alan could not afford his mortgage and his home was foreclosed.,2,na,612344,614326,1982,q,1
202200,41,5,1,9,10,m,Jack.jpg,pieFS5.bmp,Jack is homeless,2,na,626523,628111,1588,p,0
202200,42,3,6,14,20,m,Michael.jpg,pieFS3.bmp,Michael is saving to pay his university fees,2,na,640301,642023,1722,q,1
202200,43,1,5,5,10,f,Emma.jpg,pieFS1.bmp,Emma claims false expenses for her reportable work travel.,1,reputation,654213,656047,1834,p,0
202200,44,3,2,4,6,f,Joanna.jpg,pieFS3.bmp,Joanna just found out that her husband has incurred a large credit card debt.,2,na,668242,670185,1943,q,1
202200,45,5,1,9,10,f,Louise.jpg,pieFS5.bmp,Louise works as a cleaner in a hotel,2,na,682354,684134,1780,p,0
202200,46,3,5,11,16,f,Jackie.jpg,pieFS3.bmp,Jackie is a highly paid actress,1,resources,696316,698214,1898,q,1
202200,47,3,2,4,6,f,Mary.jpg,pieFS3.bmp,Mary's husband is a wealthy investment banker,1,resources,710429,712316,1887,p,0
202200,48,4,1,4,5,m,Stuart.jpg,pieFS4.bmp,Stuart lives in a luxury penthouse apartment,1,resources,724508,725926,1418,p,0
202200,49,3,4,9,13,m,Mark.jpg,pieFS3.bmp,Mark stole money from his mother's wallet.,1,reputation,738119,739533,1414,p,0
202200,50,5,2,18,20,m,Justin.jpg,pieFS5.bmp,Justin is hiding his taxable income in Switzerland.,1,reputation,751729,753300,1571,p,0
202200,51,2,3,4,7,m,Nick.jpg,pieFS2.bmp,Nick lost his life savings when his small business failed,2,na,765507,767456,1949,q,1
202200,52,3,2,4,6,f,Fay.jpg,pieFS3.bmp,Fay can't afford to pay her medical bills,2,na,779637,781761,2124,q,1
203803,1,5,1,9,10,m,Mark.jpg,pieFS5.bmp,Mark declared bankruptcy after he was laid off.,2,na,39396,48761,9365,q,1
203803,2,5,2,18,20,m,Ian.jpg,pieFS5.bmp,Ian takes valuables from his friends' homes when asked to house-sit.,1,reputation,61072,64105,3033,p,0
203803,3,4,2,8,10,m,George.jpg,pieFS4.bmp,George just bought an expensive sports car,1,resources,76421,81042,4621,p,0
203803,4,3,6,14,20,m,Joe.jpg,pieFS3.bmp,Joe is saving for his son's operation,2,na,93369,97562,4193,q,1
203803,5,3,5,11,16,m,Tony.jpg,pieFS3.bmp,Tony was injured in a hit-and-run accident and cannot afford his medical bills.,2,na,109884,112603,2719,q,1
203803,6,5,1,9,10,f,Beth.jpg,pieFS5.bmp,Beth secretly gambles with her husband's savings.,1,reputation,124918,127343,2425,p,0
203803,7,2,3,4,7,m,Don.jpg,pieFS2.bmp,Don was mugged and had his wallet stolen.,2,na,139684,141923,2239,q,1
203803,8,1,10,10,20,f,Joanna.jpg,pieFS1.bmp,Joanna just lost her small business after a franchise moved in next door.,2,na,154252,160804,6552,q,1
203803,9,3,3,7,10,f,Emily.jpg,pieFS3.bmp,Emily used her mother's social security number to open a credit card account.,1,reputation,173147,176344,3197,p,0
203803,10,4,3,12,15,f,Louise.jpg,pieFS4.bmp,Louise claims false expenses for her reportable work travel.,1,reputation,188647,190664,2017,p,0
203803,11,4,2,8,10,m,Justin.jpg,pieFS4.bmp,Justin bullies his employees to put in extra hours at work.,1,reputation,202964,203824,860,p,0
203803,12,4,2,8,10,f,Cindy.jpg,pieFS4.bmp,Cindy is raising money to buy gifts for children in need.,2,na,216133,218045,1912,q,1
203803,13,4,3,12,15,m,Paul.jpg,pieFS4.bmp,Paul just lost his job,2,na,230367,232965,2598,q,1
203803,14,1,5,5,10,f,Monica.jpg,pieFS1.bmp,Monica illegally parks in the disabled parking spots when she can.,1,reputation,245301,247365,2064,p,0
203803,15,4,2,8,10,f,Sharon.jpg,pieFS4.bmp,Sharon works as a cleaner in a hotel,2,na,259668,264786,5118,q,1
203803,16,3,4,9,13,m,Jared.jpg,pieFS3.bmp,Jared employs illegal immigrants and pays them less than minimum wage.,1,reputation,277065,278766,1701,p,0
203803,17,5,1,9,10,f,Miriam.jpg,pieFS5.bmp,Miriam's husband is a wealthy investment banker,1,resources,291083,293526,2443,p,0
203803,18,5,1,9,10,m,Sam.jpg,pieFS5.bmp,Sam often goes through and steals the neighbors' mail.,1,reputation,305867,307927,2060,p,0
203803,19,5,2,18,20,m,Kevin.jpg,pieFS5.bmp,Kevin has been unable to find a job for over a year.,2,na,320234,323027,2793,q,1
203803,20,3,2,4,6,f,Janet.jpg,pieFS3.bmp,Janet can't afford to pay her medical bills,2,na,335284,338687,3403,q,1
203803,21,3,3,7,10,f,Kay.jpg,pieFS3.bmp,Kay is going to be evicted because she is behind on her rent,2,na,350983,355327,4344,q,1
203803,22,2,6,9,15,m,Stuart.jpg,pieFS2.bmp,Stuart lost his house in a fire,2,na,367631,371288,3657,q,1
203803,23,2,7,10,17,f,Lauren.jpg,pieFS2.bmp,Lauren's car with her bag and credit cards was recently stolen.,2,na,383564,386828,3264,q,1
203803,24,5,2,18,20,f,Mary.jpg,pieFS5.bmp,Mary owns an international company,1,resources,399097,401388,2291,p,0
203803,25,1,8,8,16,m,Alan.jpg,pieFS1.bmp,Alan could not afford his mortgage and his home was foreclosed.,2,na,413664,419769,6105,q,1
203803,26,3,5,11,16,f,Fay.jpg,pieFS3.bmp,Fay received a large inheritance from a distant relative,1,resources,432010,434249,2239,p,0
203803,27,5,1,9,10,f,Jenny.jpg,pieFS5.bmp,Jenny just found out that her husband has incurred a large credit card debt.,2,na,446477,450469,3992,q,1
203803,28,2,6,9,15,m,Edward.jpg,pieFS2.bmp,Edward is hiding his taxable income in Switzerland.,1,reputation,462693,466209,3516,p,0
203803,29,3,4,9,13,m,Michael.jpg,pieFS3.bmp,Michael just found $50 on the street,1,resources,478425,481830,3405,q,1
203803,30,5,2,18,20,m,Saul.jpg,pieFS5.bmp,Saul is homeless,2,na,494041,497070,3029,q,1
203803,31,3,2,4,6,f,Fiona.jpg,pieFS3.bmp,Fiona is a single mother,2,na,509291,512731,3440,q,1
203803,32,2,8,12,20,f,Trish.jpg,pieFS2.bmp,Trish just won the lottery,1,resources,524957,527931,2974,q,1
203803,33,4,4,16,20,f,Eileen.jpg,pieFS4.bmp,Eileen is a highly paid actress,1,resources,540157,545291,5134,q,1
203803,34,3,6,14,20,m,Darnell.jpg,pieFS3.bmp,Darnell is saving to pay his university fees,2,na,557521,561031,3510,q,1
203803,35,3,2,4,6,f,Jean.jpg,pieFS3.bmp,Jean has to take an unpaid leave of absence because her mother broke her hip.,2,na,573253,575332,2079,q,1
203803,36,5,1,9,10,f,Sammy.jpg,pieFS5.bmp,Sammy got a large cash bonus from her boss,1,resources,587554,592172,4618,q,1
203803,37,1,9,9,18,m,Ricky.jpg,pieFS1.bmp,Ricky underreports his company's earnings and pockets the profits.,1,reputation,604402,607232,2830,p,0
203803,38,4,1,4,5,f,Jackie.jpg,pieFS4.bmp,Jackie was a victim of identity theft and is now thousands of dollars in debt.,2,na,619485,621593,2108,q,1
203803,39,5,1,9,10,f,Marny.jpg,pieFS5.bmp,Marny works two waitressing jobs to pay her bills.,2,na,633853,635633,1780,q,1
203803,40,2,3,4,7,f,Kelly.jpg,pieFS2.bmp,Kelly just received a huge cash settlement,1,resources,647904,652713,4809,q,1
203803,41,4,3,12,15,m,Peter.jpg,pieFS4.bmp,Peter lives in a luxury penthouse apartment,1,resources,664968,667893,2925,p,0
203803,42,4,1,4,5,m,Jack.jpg,pieFS4.bmp,Jack stole money from his mother's wallet.,1,reputation,680168,683234,3066,p,0
203803,43,5,1,9,10,f,Arianna.jpg,pieFS5.bmp,Arianna cannot afford to send her son to college.,2,na,695468,698034,2566,q,1
203803,44,4,4,16,20,m,Brad.jpg,pieFS4.bmp,Brad lost his life savings when his small business failed,2,na,710235,713314,3079,q,1
203803,45,3,4,9,13,m,Matt.jpg,pieFS3.bmp,Matt cheated on his taxes and is now under investigation for tax fraud.,1,reputation,725534,731215,5681,p,0
203803,46,5,2,18,20,m,Daniel.jpg,pieFS5.bmp,Daniel is a well paid lawyer,1,resources,743448,745435,1987,p,0
203803,47,4,3,12,15,f,Maria.jpg,pieFS4.bmp,Maria takes discarded food from grocery stores to feed her children.,2,na,757665,759695,2030,q,1
203803,48,4,4,16,20,f,Emma.jpg,pieFS4.bmp,Emma regularly fires employees to avoid promoting them.,1,reputation,771916,773435,1519,p,0
203803,49,4,1,4,5,m,Nick.jpg,pieFS4.bmp,Nick is a veteran having trouble finding employment.,2,na,785667,787936,2269,q,1
203803,50,3,2,4,6,f,Deborah.jpg,pieFS3.bmp,Deborah steals her coworkers' tips to buy alcohol.,1,reputation,800168,804796,4628,p,0
203803,51,3,3,7,10,m,Ben.jpg,pieFS3.bmp,Ben stole his elderly father's prescription medications.,1,reputation,817016,817996,980,p,0
203803,52,5,1,9,10,m,Taymar.jpg,pieFS5.bmp,Taymar is a retiree,2,na,830251,835517,5266,q,1
204059,1,5,1,9,10,m,Tony.jpg,pieFS5.bmp,Tony declared bankruptcy after he was laid off.,2,na,38710,42952,4242,m,0
204059,2,4,2,8,10,f,Louise.jpg,pieFS4.bmp,Louise can't afford to pay her medical bills,2,na,55063,57986,2923,m,0
204059,3,5,2,18,20,m,Ricky.jpg,pieFS5.bmp,Ricky is hiding his taxable income in Switzerland.,1,reputation,70079,72440,2361,m,0
204059,4,1,10,10,20,f,Trish.jpg,pieFS1.bmp,Trish is going to be evicted because she is behind on her rent,2,na,84542,87331,2789,z,1
204059,5,2,6,9,15,m,Edward.jpg,pieFS2.bmp,Edward underreports his company's earnings and pockets the profits.,1,reputation,99441,104431,4990,z,1
204059,6,4,1,4,5,f,Emily.jpg,pieFS4.bmp,Emily's car with her bag and credit cards was recently stolen.,2,na,116529,119086,2557,m,0
204059,7,2,7,10,17,f,Jackie.jpg,pieFS2.bmp,Jackie just found out that her husband has incurred a large credit card debt.,2,na,131194,133602,2408,z,1
204059,8,1,9,9,18,m,Don.jpg,pieFS1.bmp,Don takes valuables from his friends' homes when asked to house-sit.,1,reputation,145691,148044,2353,z,1
204059,9,2,3,4,7,m,Jack.jpg,pieFS2.bmp,Jack was injured in a hit-and-run accident and cannot afford his medical bills.,2,na,160137,162647,2510,z,1
204059,10,4,2,8,10,m,Joe.jpg,pieFS4.bmp,Joe is a well paid lawyer,1,resources,174718,177326,2608,m,0
204059,11,1,5,5,10,f,Kay.jpg,pieFS1.bmp,Kay owns an international company,1,resources,189399,191780,2381,z,1
204059,12,3,3,7,10,f,Kelly.jpg,pieFS3.bmp,Kelly is a highly paid actress,1,resources,203896,206203,2307,m,0
204059,13,3,2,4,6,f,Maria.jpg,pieFS3.bmp,Maria has to take an unpaid leave of absence because her mother broke her hip.,2,na,218293,220658,2365,z,1
204059,14,5,1,9,10,f,Monica.jpg,pieFS5.bmp,Monica got a large cash bonus from her boss,1,resources,232756,235330,2574,m,0
204059,15,3,2,4,6,f,Sharon.jpg,pieFS3.bmp,Sharon received a large inheritance from a distant relative,1,resources,247421,249862,2441,z,1
204059,16,5,2,18,20,m,Ian.jpg,pieFS5.bmp,Ian was mugged and had his wallet stolen.,2,na,261951,264175,2224,m,0
204059,17,5,1,9,10,f,Sammy.jpg,pieFS5.bmp,Sammy was a victim of identity theft and is now thousands of dollars in debt.,2,na,276264,278311,2047,m,0
204059,18,4,3,12,15,f,Deborah.jpg,pieFS4.bmp,Deborah works two waitressing jobs to pay her bills.,2,na,290427,292832,2405,m,0
204059,19,3,4,9,13,m,Mark.jpg,pieFS3.bmp,Mark often goes through and steals the neighbors' mail.,1,reputation,304924,307630,2706,z,1
204059,20,4,1,4,5,m,Peter.jpg,pieFS4.bmp,Peter has been unable to find a job for over a year.,2,na,319722,321943,2221,m,0
204059,21,4,3,12,15,m,Jared.jpg,pieFS4.bmp,Jared is a retiree,2,na,334018,336416,2398,m,0
204059,22,4,4,16,20,m,Darnell.jpg,pieFS4.bmp,Darnell lost his house in a fire,2,na,348498,350976,2478,m,0
204059,23,3,2,4,6,f,Fiona.jpg,pieFS3.bmp,Fiona is a single mother,2,na,363045,365227,2182,z,1
204059,24,3,3,7,10,m,Paul.jpg,pieFS3.bmp,Paul just bought an expensive sports car,1,resources,377308,381259,3951,z,1
204059,25,3,6,14,20,m,Alan.jpg,pieFS3.bmp,Alan is saving for his son's operation,2,na,393344,395363,2019,z,1
204059,26,5,1,9,10,m,Taymar.jpg,pieFS5.bmp,Taymar bullies his employees to put in extra hours at work.,1,reputation,407456,409792,2336,m,0
204059,27,4,3,12,15,m,Michael.jpg,pieFS4.bmp,Michael just found $50 on the street,1,resources,421886,428168,6282,z,1
204059,28,3,6,14,20,m,Nick.jpg,pieFS3.bmp,Nick is homeless,2,na,440263,442434,2171,z,1
204059,29,5,1,9,10,f,Beth.jpg,pieFS5.bmp,Beth just won the lottery,1,resources,454525,457819,3294,m,0
204059,30,2,6,9,15,m,Kevin.jpg,pieFS2.bmp,Kevin is saving to pay his university fees,2,na,469909,472059,2150,z,1
204059,31,3,5,11,16,m,Justin.jpg,pieFS3.bmp,Justin just lost his job,2,na,484155,486466,2311,z,1
204059,32,4,4,16,20,f,Jean.jpg,pieFS4.bmp,Jean just received a huge cash settlement,1,resources,498552,501326,2774,m,0
204059,33,5,1,9,10,f,Marny.jpg,pieFS5.bmp,Marny takes discarded food from grocery stores to feed her children.,2,na,513416,515490,2074,m,0
204059,34,5,2,18,20,f,Eileen.jpg,pieFS5.bmp,Eileen steals her coworkers' tips to buy alcohol.,1,reputation,527562,529468,1906,m,0
204059,35,3,3,7,10,f,Miriam.jpg,pieFS3.bmp,Miriam cannot afford to send her son to college.,2,na,541558,543875,2317,z,1
204059,36,4,3,12,15,f,Arianna.jpg,pieFS4.bmp,Arianna regularly fires employees to avoid promoting them.,1,reputation,555971,558216,2245,m,0
204059,37,4,2,8,10,f,Cindy.jpg,pieFS4.bmp,Cindy just lost her small business after a franchise moved in next door.,2,na,570301,572560,2259,m,0
204059,38,4,4,16,20,f,Lauren.jpg,pieFS4.bmp,Lauren used her mother's social security number to open a credit card account.,1,reputation,584647,588970,4323,m,0
204059,39,3,2,4,6,f,Joanna.jpg,pieFS3.bmp,Joanna is raising money to buy gifts for children in need.,2,na,601067,603518,2451,z,1
204059,40,3,4,9,13,m,Daniel.jpg,pieFS3.bmp,Daniel employs illegal immigrants and pays them less than minimum wage.,1,reputation,615615,617534,1919,z,1
204059,41,4,1,4,5,m,Stuart.jpg,pieFS4.bmp,Stuart lives in a luxury penthouse apartment,1,resources,629627,632613,2986,m,0
204059,42,3,4,9,13,m,Matt.jpg,pieFS3.bmp,Matt stole money from his mother's wallet.,1,reputation,644709,648234,3525,z,1
204059,43,2,8,12,20,f,Mary.jpg,pieFS2.bmp,Mary secretly gambles with her husband's savings.,1,reputation,660309,662391,2082,z,1
204059,44,5,1,9,10,f,Emma.jpg,pieFS5.bmp,Emma claims false expenses for her reportable work travel.,1,reputation,674489,676517,2028,m,0
204059,45,5,1,9,10,m,George.jpg,pieFS5.bmp,George could not afford his mortgage and his home was foreclosed.,2,na,688601,691408,2807,m,0
204059,46,2,3,4,7,f,Jenny.jpg,pieFS2.bmp,Jenny illegally parks in the disabled parking spots when she can.,1,reputation,703500,706878,3378,z,1
204059,47,5,1,9,10,f,Janet.jpg,pieFS5.bmp,Janet works as a cleaner in a hotel,2,na,718966,721492,2526,m,0
204059,48,1,8,8,16,m,Sam.jpg,pieFS1.bmp,Sam lost his life savings when his small business failed,2,na,733580,735617,2037,z,1
204059,49,4,2,8,10,m,Ben.jpg,pieFS4.bmp,Ben cheated on his taxes and is now under investigation for tax fraud.,1,reputation,747710,749743,2033,m,0
204059,50,3,5,11,16,f,Fay.jpg,pieFS3.bmp,Fay's husband is a wealthy investment banker,1,resources,761839,763713,1874,z,1
204059,51,5,2,18,20,m,Brad.jpg,pieFS5.bmp,Brad is a veteran having trouble finding employment.,2,na,775801,778307,2506,m,0
204059,52,5,2,18,20,m,Saul.jpg,pieFS5.bmp,Saul stole his elderly father's prescription medications.,1,reputation,790398,792589,2191,m,0
206270,1,2,6,9,15,m,Peter.jpg,pieFS2.bmp,Peter was mugged and had his wallet stolen.,2,na,55254,57933,2679,q,1
206270,2,4,1,4,5,m,Mark.jpg,pieFS4.bmp,Mark often goes through and steals the neighbors' mail.,1,reputation,70137,76673,6536,p,0
206270,3,2,3,4,7,m,Brad.jpg,pieFS2.bmp,Brad has been unable to find a job for over a year.,2,na,88867,90793,1926,q,1
206270,4,4,3,12,15,m,Don.jpg,pieFS4.bmp,Don lost his house in a fire,2,na,102968,135237,32269,p,0
206270,5,4,4,16,20,f,Joanna.jpg,pieFS4.bmp,Joanna illegally parks in the disabled parking spots when she can.,1,reputation,147402,149675,2273,p,0
206270,6,2,3,4,7,f,Trish.jpg,pieFS2.bmp,Trish received a large inheritance from a distant relative,1,resources,161869,163015,1146,q,1
206270,7,1,9,9,18,m,Tony.jpg,pieFS1.bmp,Tony just found $50 on the street,1,resources,175188,177156,1968,q,1
206270,8,4,2,8,10,f,Jackie.jpg,pieFS4.bmp,Jackie's car with her bag and credit cards was recently stolen.,2,na,189323,190836,1513,q,1
206270,9,5,1,9,10,m,Saul.jpg,pieFS5.bmp,Saul is homeless,2,na,202991,203816,825,q,1
206270,10,4,2,8,10,m,Daniel.jpg,pieFS4.bmp,Daniel underreports his company's earnings and pockets the profits.,1,reputation,216010,218717,2707,p,0
206270,11,3,2,4,6,f,Eileen.jpg,pieFS3.bmp,Eileen just found out that her husband has incurred a large credit card debt.,2,na,230893,231897,1004,q,1
206270,12,1,8,8,16,m,Michael.jpg,pieFS1.bmp,Michael is saving to pay his university fees,2,na,244046,244917,871,q,1
206270,13,3,3,7,10,m,Paul.jpg,pieFS3.bmp,Paul is a well paid lawyer,1,resources,257065,258398,1333,q,1
206270,14,4,2,8,10,m,Stuart.jpg,pieFS4.bmp,Stuart lives in a luxury penthouse apartment,1,resources,270550,271938,1388,q,1
206270,15,3,6,14,20,m,Jared.jpg,pieFS3.bmp,Jared is a retiree,2,na,284085,286499,2414,q,1
206270,16,3,5,11,16,f,Sammy.jpg,pieFS3.bmp,Sammy is a highly paid actress,1,resources,298652,299759,1107,q,1
206270,17,4,3,12,15,f,Janet.jpg,pieFS4.bmp,Janet is a single mother,2,na,311921,312799,878,q,1
206270,18,4,4,16,20,f,Arianna.jpg,pieFS4.bmp,Arianna just won the lottery,1,resources,324956,325680,724,q,1
206270,19,4,1,4,5,f,Emily.jpg,pieFS4.bmp,Emily has to take an unpaid leave of absence because her mother broke her hip.,2,na,337842,338820,978,q,1
206270,20,2,6,9,15,m,Justin.jpg,pieFS2.bmp,Justin just bought an expensive sports car,1,resources,350978,352180,1202,q,1
206270,21,3,2,4,6,f,Fiona.jpg,pieFS3.bmp,Fiona cannot afford to send her son to college.,2,na,364330,364821,491,q,1
206270,22,5,1,9,10,f,Kelly.jpg,pieFS5.bmp,Kelly got a large cash bonus from her boss,1,resources,376982,378721,1739,q,1
206270,23,5,2,18,20,f,Louise.jpg,pieFS5.bmp,Louise regularly fires employees to avoid promoting them.,1,reputation,390884,393341,2457,p,0
206270,24,3,3,7,10,f,Jenny.jpg,pieFS3.bmp,Jenny was a victim of identity theft and is now thousands of dollars in debt.,2,na,405518,406402,884,q,1
206270,25,5,1,9,10,m,Matt.jpg,pieFS5.bmp,Matt stole money from his mother's wallet.,1,reputation,418570,419082,512,p,0
206270,26,3,2,4,6,f,Marny.jpg,pieFS3.bmp,Marny works two waitressing jobs to pay her bills.,2,na,431256,431662,406,q,1
206270,27,3,6,14,20,m,Darnell.jpg,pieFS3.bmp,Darnell lost his life savings when his small business failed,2,na,443859,444583,724,q,1
206270,28,2,8,12,20,f,Cindy.jpg,pieFS2.bmp,Cindy just received a huge cash settlement,1,resources,456744,457443,699,q,1
206270,29,5,1,9,10,f,Sharon.jpg,pieFS5.bmp,Sharon secretly gambles with her husband's savings.,1,reputation,469614,471563,1949,p,0
206270,30,5,1,9,10,f,Miriam.jpg,pieFS5.bmp,Miriam claims false expenses for her reportable work travel.,1,reputation,483748,485284,1536,p,0
206270,31,4,4,16,20,m,George.jpg,pieFS4.bmp,George is saving for his son's operation,2,na,497483,497924,441,q,1
206270,32,3,4,9,13,m,Ben.jpg,pieFS3.bmp,Ben cheated on his taxes and is now under investigation for tax fraud.,1,reputation,510119,510725,606,p,0
206270,33,5,1,9,10,f,Kay.jpg,pieFS5.bmp,Kay works as a cleaner in a hotel,2,na,522888,523385,497,q,1
206270,34,5,2,18,20,m,Jack.jpg,pieFS5.bmp,Jack is a veteran having trouble finding employment.,2,na,535541,536045,504,q,1
206270,35,4,3,12,15,m,Taymar.jpg,pieFS4.bmp,Taymar bullies his employees to put in extra hours at work.,1,reputation,548227,549725,1498,p,0
206270,36,5,1,9,10,f,Jean.jpg,pieFS5.bmp,Jean takes discarded food from grocery stores to feed her children.,2,na,561912,562526,614,q,1
206270,37,3,4,9,13,m,Kevin.jpg,pieFS3.bmp,Kevin stole his elderly father's prescription medications.,1,reputation,574748,577426,2678,p,0
206270,38,5,1,9,10,m,Edward.jpg,pieFS5.bmp,Edward just lost his job,2,na,589648,590106,458,q,1
206270,39,5,2,18,20,m,Joe.jpg,pieFS5.bmp,Joe employs illegal immigrants and pays them less than minimum wage.,1,reputation,602334,603287,953,p,0
206270,40,4,1,4,5,m,Alan.jpg,pieFS4.bmp,Alan could not afford his mortgage and his home was foreclosed.,2,na,615519,617807,2288,q,1
206270,41,5,2,18,20,m,Ricky.jpg,pieFS5.bmp,Ricky is hiding his taxable income in Switzerland.,1,reputation,630037,630508,471,p,0
206270,42,4,3,12,15,f,Beth.jpg,pieFS4.bmp,Beth's husband is a wealthy investment banker,1,resources,642740,643348,608,q,1
206270,43,2,7,10,17,f,Emma.jpg,pieFS2.bmp,Emma can't afford to pay her medical bills,2,na,655575,655968,393,q,1
206270,44,5,2,18,20,m,Nick.jpg,pieFS5.bmp,Nick declared bankruptcy after he was laid off.,2,na,668195,668689,494,q,1
206270,45,3,4,9,13,m,Ian.jpg,pieFS3.bmp,Ian takes valuables from his friends' homes when asked to house-sit.,1,reputation,680914,681429,515,p,0
206270,46,4,2,8,10,f,Fay.jpg,pieFS4.bmp,Fay is going to be evicted because she is behind on her rent,2,na,693633,694389,756,q,1
206270,47,1,5,5,10,f,Maria.jpg,pieFS1.bmp,Maria steals her coworkers' tips to buy alcohol.,1,reputation,706619,707270,651,p,0
206270,48,1,10,10,20,f,Monica.jpg,pieFS1.bmp,Monica just lost her small business after a franchise moved in next door.,2,na,719505,720510,1005,q,1
206270,49,3,2,4,6,f,Lauren.jpg,pieFS3.bmp,Lauren used her mother's social security number to open a credit card account.,1,reputation,732740,739570,6830,p,0
206270,50,5,1,9,10,f,Deborah.jpg,pieFS5.bmp,Deborah is raising money to buy gifts for children in need.,2,na,751819,752191,372,q,1
206270,51,3,3,7,10,f,Mary.jpg,pieFS3.bmp,Mary owns an international company,1,resources,764422,765151,729,q,1
206270,52,3,5,11,16,m,Sam.jpg,pieFS3.bmp,Sam was injured in a hit-and-run accident and cannot afford his medical bills.,2,na,777374,778031,657,q,1
207224,1,1,8,8,16,m,Michael.jpg,pieFS1.bmp,Michael has been unable to find a job for over a year.,2,na,28313,32745,4432,z,1
207224,2,4,4,16,20,m,Stuart.jpg,pieFS4.bmp,Stuart lost his house in a fire,2,na,44850,47575,2725,z,1
207224,3,3,2,4,6,f,Fiona.jpg,pieFS3.bmp,Fiona just won the lottery,1,resources,59681,61464,1783,z,1
207224,4,5,1,9,10,f,Miriam.jpg,pieFS5.bmp,Miriam cannot afford to send her son to college.,2,na,73576,75418,1842,z,1
207224,5,3,5,11,16,f,Emma.jpg,pieFS3.bmp,Emma regularly fires employees to avoid promoting them.,1,reputation,87505,89499,1994,z,1
207224,6,2,3,4,7,f,Mary.jpg,pieFS2.bmp,Mary secretly gambles with her husband's savings.,1,reputation,101601,103148,1547,z,1
207224,7,4,3,12,15,f,Fay.jpg,pieFS4.bmp,Fay claims false expenses for her reportable work travel.,1,reputation,115245,117490,2245,z,1
207224,8,5,1,9,10,f,Beth.jpg,pieFS5.bmp,Beth works as a cleaner in a hotel,2,na,129575,131403,1828,z,1
207224,9,2,8,12,20,f,Sammy.jpg,pieFS2.bmp,Sammy used her mother's social security number to open a credit card account.,1,reputation,143503,145428,1925,z,1
207224,10,3,3,7,10,f,Joanna.jpg,pieFS3.bmp,Joanna is raising money to buy gifts for children in need.,2,na,157515,159021,1506,z,1
207224,11,5,1,9,10,m,Alan.jpg,pieFS5.bmp,Alan just lost his job,2,na,171093,173646,2553,z,1
207224,12,1,9,9,18,m,Justin.jpg,pieFS1.bmp,Justin employs illegal immigrants and pays them less than minimum wage.,1,reputation,185740,188270,2530,z,1
207224,13,5,1,9,10,f,Cindy.jpg,pieFS5.bmp,Cindy illegally parks in the disabled parking spots when she can.,1,reputation,200354,201582,1228,z,1
207224,14,4,3,12,15,f,Jackie.jpg,pieFS4.bmp,Jackie's car with her bag and credit cards was recently stolen.,2,na,213681,215981,2300,z,1
207224,15,4,2,8,10,f,Lauren.jpg,pieFS4.bmp,Lauren just found out that her husband has incurred a large credit card debt.,2,na,228077,229575,1498,z,1
207224,16,4,4,16,20,f,Janet.jpg,pieFS4.bmp,Janet's husband is a wealthy investment banker,1,resources,241671,242845,1174,z,1
207224,17,3,2,4,6,f,Kay.jpg,pieFS3.bmp,Kay can't afford to pay her medical bills,2,na,254931,256574,1643,z,1
207224,18,3,2,4,6,f,Sharon.jpg,pieFS3.bmp,Sharon is going to be evicted because she is behind on her rent,2,na,268659,270279,1620,z,1
207224,19,5,2,18,20,m,Darnell.jpg,pieFS5.bmp,Darnell just found $50 on the street,1,resources,282370,286029,3659,z,1
207224,20,3,6,14,20,m,Nick.jpg,pieFS3.bmp,Nick is homeless,2,na,298104,299543,1439,z,1
207224,21,5,1,9,10,f,Jean.jpg,pieFS5.bmp,Jean is a highly paid actress,1,resources,311631,312747,1116,z,1
207224,22,5,1,9,10,m,Matt.jpg,pieFS5.bmp,Matt is saving to pay his university fees,2,na,324841,326209,1368,z,1
207224,23,1,5,5,10,f,Arianna.jpg,pieFS1.bmp,Arianna owns an international company,1,resources,338301,340083,1782,z,1
207224,24,4,2,8,10,f,Maria.jpg,pieFS4.bmp,Maria has to take an unpaid leave of absence because her mother broke her hip.,2,na,352180,353583,1403,z,1
207224,25,4,2,8,10,m,Ben.jpg,pieFS4.bmp,Ben lives in a luxury penthouse apartment,1,resources,365673,367101,1428,z,1
207224,26,3,4,9,13,m,Sam.jpg,pieFS3.bmp,Sam stole money from his mother's wallet.,1,reputation,379201,385869,6668,m,0
207224,27,4,3,12,15,m,Taymar.jpg,pieFS4.bmp,Taymar could not afford his mortgage and his home was foreclosed.,2,na,397961,399763,1802,z,1
207224,28,5,1,9,10,m,Daniel.jpg,pieFS5.bmp,Daniel is hiding his taxable income in Switzerland.,1,reputation,411856,413496,1640,z,1
207224,29,4,2,8,10,m,Edward.jpg,pieFS4.bmp,Edward underreports his company's earnings and pockets the profits.,1,reputation,425584,428655,3071,z,1
207224,30,5,2,18,20,f,Louise.jpg,pieFS5.bmp,Louise received a large inheritance from a distant relative,1,resources,440750,442511,1761,z,1
207224,31,3,5,11,16,m,Don.jpg,pieFS3.bmp,Don lost his life savings when his small business failed,2,na,454612,456742,2130,z,1
207224,32,5,2,18,20,m,Tony.jpg,pieFS5.bmp,Tony cheated on his taxes and is now under investigation for tax fraud.,1,reputation,468841,472247,3406,z,1
207224,33,4,4,16,20,f,Monica.jpg,pieFS4.bmp,Monica got a large cash bonus from her boss,1,resources,484341,486909,2568,z,1
207224,34,3,6,14,20,m,Mark.jpg,pieFS3.bmp,Mark is a veteran having trouble finding employment.,2,na,499006,505040,6034,z,1
207224,35,3,4,9,13,m,Brad.jpg,pieFS3.bmp,Brad stole his elderly father's prescription medications.,1,reputation,517131,521746,4615,z,1
207224,36,2,3,4,7,m,Saul.jpg,pieFS2.bmp,Saul declared bankruptcy after he was laid off.,2,na,533835,537827,3992,z,1
207224,37,4,1,4,5,m,Kevin.jpg,pieFS4.bmp,Kevin takes valuables from his friends' homes when asked to house-sit.,1,reputation,549921,555944,6023,z,1
207224,38,5,1,9,10,f,Trish.jpg,pieFS5.bmp,Trish is a single mother,2,na,568029,570156,2127,z,1
207224,39,3,4,9,13,m,Paul.jpg,pieFS3.bmp,Paul is a well paid lawyer,1,resources,582225,583655,1430,z,1
207224,40,2,6,9,15,m,Jared.jpg,pieFS2.bmp,Jared is a retiree,2,na,595736,598875,3139,z,1
207224,41,4,1,4,5,m,Peter.jpg,pieFS4.bmp,Peter was injured in a hit-and-run accident and cannot afford his medical bills.,2,na,610969,615698,4729,z,1
207224,42,2,7,10,17,f,Kelly.jpg,pieFS2.bmp,Kelly was a victim of identity theft and is now thousands of dollars in debt.,2,na,627790,630941,3151,z,1
207224,43,3,2,4,6,f,Emily.jpg,pieFS3.bmp,Emily works two waitressing jobs to pay her bills.,2,na,643039,644722,1683,z,1
207224,44,2,6,9,15,m,George.jpg,pieFS2.bmp,George just bought an expensive sports car,1,resources,656817,658686,1869,z,1
207224,45,5,2,18,20,m,Joe.jpg,pieFS5.bmp,Joe is saving for his son's operation,2,na,670779,673933,3154,z,1
207224,46,5,1,9,10,f,Eileen.jpg,pieFS5.bmp,Eileen just received a huge cash settlement,1,resources,686029,688202,2173,z,1
207224,47,4,1,4,5,f,Deborah.jpg,pieFS4.bmp,Deborah takes discarded food from grocery stores to feed her children.,2,na,700292,702714,2422,z,1
207224,48,3,3,7,10,f,Jenny.jpg,pieFS3.bmp,Jenny steals her coworkers' tips to buy alcohol.,1,reputation,714805,719940,5135,z,1
207224,49,5,2,18,20,m,Jack.jpg,pieFS5.bmp,Jack was mugged and had his wallet stolen.,2,na,732028,734081,2053,z,1
207224,50,4,3,12,15,m,Ian.jpg,pieFS4.bmp,Ian often goes through and steals the neighbors' mail.,1,reputation,746174,750974,4800,z,1
207224,51,1,10,10,20,f,Marny.jpg,pieFS1.bmp,Marny just lost her small business after a franchise moved in next door.,2,na,763062,766592,3530,z,1
207224,52,3,3,7,10,m,Ricky.jpg,pieFS3.bmp,Ricky bullies his employees to put in extra hours at work.,1,reputation,778679,781718,3039,z,1
208427,1,4,3,12,15,f,Lauren.jpg,pieFS4.bmp,Lauren's car with her bag and credit cards was recently stolen.,2,na,84895,87335,2440,q,1
208427,2,3,4,9,13,m,Ricky.jpg,pieFS3.bmp,Ricky employs illegal immigrants and pays them less than minimum wage.,1,reputation,99595,104275,4680,p,0
208427,3,5,1,9,10,m,Joe.jpg,pieFS5.bmp,Joe could not afford his mortgage and his home was foreclosed.,2,na,116543,118355,1812,q,1
208427,4,5,1,9,10,f,Miriam.jpg,pieFS5.bmp,Miriam can't afford to pay her medical bills,2,na,130627,132055,1428,q,1
208427,5,5,1,9,10,m,Don.jpg,pieFS5.bmp,Don declared bankruptcy after he was laid off.,2,na,144312,145475,1163,q,1
208427,6,3,3,7,10,m,Jared.jpg,pieFS3.bmp,Jared is hiding his taxable income in Switzerland.,1,reputation,157746,158875,1129,p,0
208427,7,2,7,10,17,f,Jackie.jpg,pieFS2.bmp,Jackie just found out that her husband has incurred a large credit card debt.,2,na,171131,173995,2864,q,1
208427,8,1,9,9,18,m,Mark.jpg,pieFS1.bmp,Mark takes valuables from his friends' homes when asked to house-sit.,1,reputation,186248,188435,2187,q,1
208427,9,4,2,8,10,f,Kay.jpg,pieFS4.bmp,Kay is going to be evicted because she is behind on her rent,2,na,200665,201815,1150,p,0
208427,10,2,6,9,15,m,Stuart.jpg,pieFS2.bmp,Stuart was injured in a hit-and-run accident and cannot afford his medical bills.,2,na,214050,216935,2885,q,1
208427,11,1,5,5,10,f,Deborah.jpg,pieFS1.bmp,Deborah is a highly paid actress,1,resources,229150,231655,2505,q,1
208427,12,4,3,12,15,m,Brad.jpg,pieFS4.bmp,Brad was mugged and had his wallet stolen.,2,na,243883,246755,2872,q,1
208427,13,4,2,8,10,m,Justin.jpg,pieFS4.bmp,Justin underreports his company's earnings and pockets the profits.,1,reputation,258966,260076,1110,p,0
208427,14,3,3,7,10,f,Eileen.jpg,pieFS3.bmp,Eileen has to take an unpaid leave of absence because her mother broke her hip.,2,na,272284,273916,1632,q,1
208427,15,4,2,8,10,m,Tony.jpg,pieFS4.bmp,Tony often goes through and steals the neighbors' mail.,1,reputation,286119,287656,1537,p,0
208427,16,3,4,9,13,m,Daniel.jpg,pieFS3.bmp,Daniel is a well paid lawyer,1,resources,299887,301336,1449,q,1
208427,17,5,2,18,20,m,Ben.jpg,pieFS5.bmp,Ben has been unable to find a job for over a year.,2,na,313555,315276,1721,q,1
208427,18,1,8,8,16,m,Nick.jpg,pieFS1.bmp,Nick lost his house in a fire,2,na,327506,329496,1990,q,1
208427,19,3,3,7,10,f,Janet.jpg,pieFS3.bmp,Janet owns an international company,1,resources,341723,344596,2873,q,1
208427,20,5,2,18,20,m,Alan.jpg,pieFS5.bmp,Alan is a retiree,2,na,356806,359876,3070,p,0
208427,21,4,1,4,5,m,George.jpg,pieFS4.bmp,George just bought an expensive sports car,1,resources,372105,374716,2611,p,0
208427,22,4,3,12,15,f,Joanna.jpg,pieFS4.bmp,Joanna got a large cash bonus from her boss,1,resources,386939,389776,2837,p,0
208427,23,4,1,4,5,m,Taymar.jpg,pieFS4.bmp,Taymar is saving for his son's operation,2,na,401989,403216,1227,q,1
208427,24,5,1,9,10,f,Arianna.jpg,pieFS5.bmp,Arianna received a large inheritance from a distant relative,1,resources,415440,418096,2656,p,0
208427,25,5,1,9,10,f,Jenny.jpg,pieFS5.bmp,Jenny was a victim of identity theft and is now thousands of dollars in debt.,2,na,430307,431816,1509,q,1
208427,26,2,6,9,15,m,Peter.jpg,pieFS2.bmp,Peter just found $50 on the street,1,resources,444025,446616,2591,q,1
208427,27,2,3,4,7,m,Sam.jpg,pieFS2.bmp,Sam is homeless,2,na,458841,460136,1295,q,1
208427,28,5,1,9,10,f,Beth.jpg,pieFS5.bmp,Beth is a single mother,2,na,472359,474696,2337,q,1
208427,29,5,2,18,20,m,Edward.jpg,pieFS5.bmp,Edward bullies his employees to put in extra hours at work.,1,reputation,486910,489277,2367,p,0
208427,30,4,2,8,10,f,Cindy.jpg,pieFS4.bmp,Cindy works two waitressing jobs to pay her bills.,2,na,501510,502896,1386,q,1
208427,31,2,3,4,7,f,Emma.jpg,pieFS2.bmp,Emma just won the lottery,1,resources,515145,517477,2332,q,1
208427,32,3,2,4,6,f,Fay.jpg,pieFS3.bmp,Fay cannot afford to send her son to college.,2,na,529712,531637,1925,q,1
208427,33,4,4,16,20,f,Trish.jpg,pieFS4.bmp,Trish regularly fires employees to avoid promoting them.,1,reputation,543846,546077,2231,p,0
208427,34,5,2,18,20,f,Sharon.jpg,pieFS5.bmp,Sharon secretly gambles with her husband's savings.,1,reputation,558296,562357,4061,p,0
208427,35,3,6,14,20,m,Kevin.jpg,pieFS3.bmp,Kevin is saving to pay his university fees,2,na,574578,576117,1539,q,1
208427,36,3,4,9,13,m,Matt.jpg,pieFS3.bmp,Matt lives in a luxury penthouse apartment,1,resources,588346,592157,3811,q,1
208427,37,5,1,9,10,m,Darnell.jpg,pieFS5.bmp,Darnell stole money from his mother's wallet.,1,reputation,604394,607117,2723,p,0
208427,38,2,8,12,20,f,Jean.jpg,pieFS2.bmp,Jean just received a huge cash settlement,1,resources,619344,622217,2873,q,1
208427,39,3,5,11,16,m,Saul.jpg,pieFS3.bmp,Saul lost his life savings when his small business failed,2,na,634444,635937,1493,q,1
208427,40,4,1,4,5,f,Sammy.jpg,pieFS4.bmp,Sammy takes discarded food from grocery stores to feed her children.,2,na,648195,650457,2262,q,1
208427,41,5,2,18,20,m,Ian.jpg,pieFS5.bmp,Ian cheated on his taxes and is now under investigation for tax fraud.,1,reputation,662679,664117,1438,p,0
208427,42,3,5,11,16,f,Monica.jpg,pieFS3.bmp,Monica steals her coworkers' tips to buy alcohol.,1,reputation,676347,680537,4190,p,0
208427,43,3,2,4,6,f,Emily.jpg,pieFS3.bmp,Emily just lost her small business after a franchise moved in next door.,2,na,692745,693938,1193,q,1
208427,44,3,6,14,20,m,Jack.jpg,pieFS3.bmp,Jack is a veteran having trouble finding employment.,2,na,706147,707937,1790,q,1
208427,45,5,1,9,10,f,Marny.jpg,pieFS5.bmp,Marny used her mother's social security number to open a credit card account.,1,reputation,720147,721617,1470,p,0
208427,46,4,3,12,15,m,Michael.jpg,pieFS4.bmp,Michael stole his elderly father's prescription medications.,1,reputation,733849,735257,1408,p,0
208427,47,3,2,4,6,f,Kelly.jpg,pieFS3.bmp,Kelly is raising money to buy gifts for children in need.,2,na,747483,748917,1434,p,0
208427,48,4,4,16,20,f,Maria.jpg,pieFS4.bmp,Maria illegally parks in the disabled parking spots when she can.,1,reputation,761135,763977,2842,q,1
208427,49,3,2,4,6,f,Mary.jpg,pieFS3.bmp,Mary claims false expenses for her reportable work travel.,1,reputation,776201,778698,2497,p,0
208427,50,1,10,10,20,f,Louise.jpg,pieFS1.bmp,Louise works as a cleaner in a hotel,2,na,790918,793338,2420,q,1
208427,51,5,1,9,10,f,Fiona.jpg,pieFS5.bmp,Fiona's husband is a wealthy investment banker,1,resources,805551,807558,2007,p,0
208427,52,4,4,16,20,m,Paul.jpg,pieFS4.bmp,Paul just lost his job,2,na,819785,821258,1473,q,1
208510,1,5,2,18,20,m,Jared.jpg,pieFS5.bmp,Jared underreports his company's earnings and pockets the profits.,1,reputation,44724,49684,4960,p,0
208510,2,4,4,16,20,f,Janet.jpg,pieFS4.bmp,Janet's husband is a wealthy investment banker,1,resources,61938,64684,2746,p,0
208510,3,5,1,9,10,f,Marny.jpg,pieFS5.bmp,Marny illegally parks in the disabled parking spots when she can.,1,reputation,76922,79365,2443,p,0
208510,4,3,5,11,16,m,Peter.jpg,pieFS3.bmp,Peter was mugged and had his wallet stolen.,2,na,91622,95325,3703,q,1
208510,5,5,1,9,10,f,Arianna.jpg,pieFS5.bmp,Arianna can't afford to pay her medical bills,2,na,107587,110085,2498,p,0
208510,6,3,4,9,13,m,Mark.jpg,pieFS3.bmp,Mark often goes through and steals the neighbors' mail.,1,reputation,122338,125425,3087,p,0
208510,7,4,3,12,15,f,Kay.jpg,pieFS4.bmp,Kay is going to be evicted because she is behind on her rent,2,na,137687,140725,3038,p,0
208510,8,2,8,12,20,f,Fay.jpg,pieFS2.bmp,Fay owns an international company,1,resources,153003,156225,3222,q,1
208510,9,1,5,5,10,f,Beth.jpg,pieFS1.bmp,Beth received a large inheritance from a distant relative,1,resources,168503,171926,3423,p,0
208510,10,5,2,18,20,m,Don.jpg,pieFS5.bmp,Don has been unable to find a job for over a year.,2,na,184202,187045,2843,p,0
208510,11,2,3,4,7,m,Sam.jpg,pieFS2.bmp,Sam lost his house in a fire,2,na,199318,202346,3028,p,0
208510,12,3,3,7,10,f,Fiona.jpg,pieFS3.bmp,Fiona is a single mother,2,na,214601,217006,2405,p,0
208510,13,5,1,9,10,f,Louise.jpg,pieFS5.bmp,Louise just won the lottery,1,resources,229268,231746,2478,p,0
208510,14,2,7,10,17,f,Jean.jpg,pieFS2.bmp,Jean's car with her bag and credit cards was recently stolen.,2,na,244018,248426,4408,q,1
208510,15,3,2,4,6,f,Joanna.jpg,pieFS3.bmp,Joanna just found out that her husband has incurred a large credit card debt.,2,na,260700,264426,3726,p,0
208510,16,2,6,9,15,m,George.jpg,pieFS2.bmp,George is a well paid lawyer,1,resources,276698,279566,2868,q,1
208510,17,4,3,12,15,f,Maria.jpg,pieFS4.bmp,Maria is a highly paid actress,1,resources,291848,293387,1539,p,0
208510,18,4,2,8,10,f,Kelly.jpg,pieFS4.bmp,Kelly has to take an unpaid leave of absence because her mother broke her hip.,2,na,305649,309107,3458,p,0
208510,19,3,5,11,16,f,Jackie.jpg,pieFS3.bmp,Jackie got a large cash bonus from her boss,1,resources,321365,324367,3002,q,1
208510,20,1,8,8,16,m,Alan.jpg,pieFS1.bmp,Alan is a retiree,2,na,336648,338787,2139,q,1
208510,21,5,2,18,20,m,Daniel.jpg,pieFS5.bmp,Daniel just bought an expensive sports car,1,resources,351065,353387,2322,p,0
208510,22,4,1,4,5,f,Deborah.jpg,pieFS4.bmp,Deborah was a victim of identity theft and is now thousands of dollars in debt.,2,na,365666,369168,3502,p,0
208510,23,1,10,10,20,f,Cindy.jpg,pieFS1.bmp,Cindy works two waitressing jobs to pay her bills.,2,na,381431,384708,3277,q,1
208510,24,3,4,9,13,m,Matt.jpg,pieFS3.bmp,Matt just found $50 on the street,1,resources,396981,400288,3307,p,0
208510,25,5,2,18,20,m,Tony.jpg,pieFS5.bmp,Tony is homeless,2,na,412546,415048,2502,p,0
208510,26,4,3,12,15,m,Nick.jpg,pieFS4.bmp,Nick is saving to pay his university fees,2,na,427313,428808,1495,p,0
208510,27,4,4,16,20,f,Sammy.jpg,pieFS4.bmp,Sammy just received a huge cash settlement,1,resources,441081,442968,1887,p,0
208510,28,5,1,9,10,f,Mary.jpg,pieFS5.bmp,Mary cannot afford to send her son to college.,2,na,455249,457648,2399,p,0
208510,29,3,2,4,6,f,Eileen.jpg,pieFS3.bmp,Eileen takes discarded food from grocery stores to feed her children.,2,na,469916,472969,3053,p,0
208510,30,4,2,8,10,m,Ian.jpg,pieFS4.bmp,Ian lives in a luxury penthouse apartment,1,resources,485249,488089,2840,p,0
208510,31,3,3,7,10,f,Emma.jpg,pieFS3.bmp,Emma regularly fires employees to avoid promoting them.,1,reputation,500348,503429,3081,p,0
208510,32,5,1,9,10,f,Sharon.jpg,pieFS5.bmp,Sharon secretly gambles with her husband's savings.,1,reputation,515698,518389,2691,p,0
208510,33,1,9,9,18,m,Ben.jpg,pieFS1.bmp,Ben stole money from his mother's wallet.,1,reputation,530648,534130,3482,q,1
208510,34,2,3,4,7,f,Monica.jpg,pieFS2.bmp,Monica steals her coworkers' tips to buy alcohol.,1,reputation,546380,548729,2349,p,0
208510,35,2,6,9,15,m,Michael.jpg,pieFS2.bmp,Michael lost his life savings when his small business failed,2,na,560964,564889,3925,q,1
208510,36,4,2,8,10,m,Stuart.jpg,pieFS4.bmp,Stuart cheated on his taxes and is now under investigation for tax fraud.,1,reputation,577146,580030,2884,p,0
208510,37,5,1,9,10,m,Kevin.jpg,pieFS5.bmp,Kevin is a veteran having trouble finding employment.,2,na,592279,595010,2731,p,0
208510,38,3,2,4,6,f,Lauren.jpg,pieFS3.bmp,Lauren just lost her small business after a franchise moved in next door.,2,na,607279,609750,2471,p,0
208510,39,5,1,9,10,m,Taymar.jpg,pieFS5.bmp,Taymar is saving for his son's operation,2,na,621996,623831,1835,p,0
208510,40,3,2,4,6,f,Miriam.jpg,pieFS3.bmp,Miriam claims false expenses for her reportable work travel.,1,reputation,636113,639730,3617,p,0
208510,41,3,3,7,10,m,Brad.jpg,pieFS3.bmp,Brad stole his elderly father's prescription medications.,1,reputation,651996,653650,1654,p,0
208510,42,4,3,12,15,m,Joe.jpg,pieFS4.bmp,Joe bullies his employees to put in extra hours at work.,1,reputation,665913,668690,2777,p,0
208510,43,5,2,18,20,f,Jenny.jpg,pieFS5.bmp,Jenny used her mother's social security number to open a credit card account.,1,reputation,680963,683131,2168,p,0
208510,44,5,1,9,10,f,Emily.jpg,pieFS5.bmp,Emily is raising money to buy gifts for children in need.,2,na,695397,697111,1714,p,0
208510,45,3,6,14,20,m,Justin.jpg,pieFS3.bmp,Justin just lost his job,2,na,709365,712291,2926,q,1
208510,46,5,1,9,10,m,Ricky.jpg,pieFS5.bmp,Ricky employs illegal immigrants and pays them less than minimum wage.,1,reputation,724548,727511,2963,p,0
208510,47,4,1,4,5,m,Saul.jpg,pieFS4.bmp,Saul declared bankruptcy after he was laid off.,2,na,739764,743252,3488,p,0
208510,48,4,4,16,20,m,Edward.jpg,pieFS4.bmp,Edward could not afford his mortgage and his home was foreclosed.,2,na,755497,758112,2615,p,0
208510,49,4,2,8,10,f,Trish.jpg,pieFS4.bmp,Trish works as a cleaner in a hotel,2,na,770363,771712,1349,p,0
208510,50,3,4,9,13,m,Jack.jpg,pieFS3.bmp,Jack takes valuables from his friends' homes when asked to house-sit.,1,reputation,783965,788012,4047,p,0
208510,51,3,6,14,20,m,Darnell.jpg,pieFS3.bmp,Darnell was injured in a hit-and-run accident and cannot afford his medical bills.,2,na,800247,803492,3245,q,1
208510,52,4,1,4,5,m,Paul.jpg,pieFS4.bmp,Paul is hiding his taxable income in Switzerland.,1,reputation,815746,818572,2826,p,0
208806,1,5,1,9,10,f,Jenny.jpg,pieFS5.bmp,Jenny just found out that her husband has incurred a large credit card debt.,2,na,90315,94520,4205,q,1
208806,2,1,8,8,16,m,Joe.jpg,pieFS1.bmp,Joe just lost his job,2,na,106714,111120,4406,p,0
208806,3,3,3,7,10,f,Eileen.jpg,pieFS3.bmp,Eileen is a highly paid actress,1,resources,123312,124920,1608,q,1
208806,4,3,4,9,13,m,Kevin.jpg,pieFS3.bmp,Kevin stole money from his mother's wallet.,1,reputation,137113,139360,2247,p,0
208806,5,5,1,9,10,f,Emily.jpg,pieFS5.bmp,Emily has to take an unpaid leave of absence because her mother broke her hip.,2,na,151563,153660,2097,q,1
208806,6,4,4,16,20,f,Kelly.jpg,pieFS4.bmp,Kelly got a large cash bonus from her boss,1,resources,165847,167520,1673,q,1
208806,7,4,2,8,10,f,Marny.jpg,pieFS4.bmp,Marny was a victim of identity theft and is now thousands of dollars in debt.,2,na,179715,181740,2025,q,1
208806,8,3,3,7,10,f,Joanna.jpg,pieFS3.bmp,Joanna works two waitressing jobs to pay her bills.,2,na,193932,195720,1788,q,1
208806,9,2,3,4,7,f,Maria.jpg,pieFS2.bmp,Maria just received a huge cash settlement,1,resources,207917,209300,1383,q,1
208806,10,4,3,12,15,f,Sharon.jpg,pieFS4.bmp,Sharon regularly fires employees to avoid promoting them.,1,reputation,221468,223340,1872,p,0
208806,11,1,9,9,18,m,Edward.jpg,pieFS1.bmp,Edward employs illegal immigrants and pays them less than minimum wage.,1,reputation,235519,237260,1741,q,1
208806,12,3,6,14,20,m,Tony.jpg,pieFS3.bmp,Tony lost his life savings when his small business failed,2,na,249436,251260,1824,q,1
208806,13,5,2,18,20,m,Daniel.jpg,pieFS5.bmp,Daniel could not afford his mortgage and his home was foreclosed.,2,na,263437,267580,4143,p,0
208806,14,4,2,8,10,m,Jack.jpg,pieFS4.bmp,Jack cheated on his taxes and is now under investigation for tax fraud.,1,reputation,279752,281360,1608,q,1
208806,15,2,3,4,7,m,Matt.jpg,pieFS2.bmp,Matt is a veteran having trouble finding employment.,2,na,293520,296380,2860,q,1
208806,16,5,1,9,10,m,Darnell.jpg,pieFS5.bmp,Darnell stole his elderly father's prescription medications.,1,reputation,308537,311260,2723,p,0
208806,17,1,5,5,10,f,Janet.jpg,pieFS1.bmp,Janet secretly gambles with her husband's savings.,1,reputation,323437,325100,1663,q,1
208806,18,3,5,11,16,f,Mary.jpg,pieFS3.bmp,Mary claims false expenses for her reportable work travel.,1,reputation,337271,339840,2569,p,0
208806,19,4,2,8,10,f,Trish.jpg,pieFS4.bmp,Trish works as a cleaner in a hotel,2,na,352038,353981,1943,q,1
208806,20,3,2,4,6,f,Deborah.jpg,pieFS3.bmp,Deborah takes discarded food from grocery stores to feed her children.,2,na,366172,368181,2009,q,1
208806,21,5,2,18,20,m,Peter.jpg,pieFS5.bmp,Peter declared bankruptcy after he was laid off.,2,na,380373,383861,3488,q,1
208806,22,4,1,4,5,m,Sam.jpg,pieFS4.bmp,Sam takes valuables from his friends' homes when asked to house-sit.,1,reputation,396038,399121,3083,p,0
208806,23,5,1,9,10,m,Ian.jpg,pieFS5.bmp,Ian was injured in a hit-and-run accident and cannot afford his medical bills.,2,na,411288,413461,2173,q,1
208806,24,5,1,9,10,f,Sammy.jpg,pieFS5.bmp,Sammy steals her coworkers' tips to buy alcohol.,1,reputation,425622,427161,1539,p,0
208806,25,2,8,12,20,f,Arianna.jpg,pieFS2.bmp,Arianna's husband is a wealthy investment banker,1,resources,439323,440641,1318,q,1
208806,26,3,6,14,20,m,Brad.jpg,pieFS3.bmp,Brad was mugged and had his wallet stolen.,2,na,452791,454021,1230,q,1
208806,27,4,1,4,5,f,Miriam.jpg,pieFS4.bmp,Miriam can't afford to pay her medical bills,2,na,466176,468221,2045,q,1
208806,28,3,3,7,10,m,Taymar.jpg,pieFS3.bmp,Taymar is hiding his taxable income in Switzerland.,1,reputation,480377,481641,1264,q,1
208806,29,4,3,12,15,m,Alan.jpg,pieFS4.bmp,Alan underreports his company's earnings and pockets the profits.,1,reputation,493812,495041,1229,q,1
208806,30,4,3,12,15,f,Kay.jpg,pieFS4.bmp,Kay is going to be evicted because she is behind on her rent,2,na,507197,509401,2204,q,1
208806,31,3,2,4,6,f,Monica.jpg,pieFS3.bmp,Monica just lost her small business after a franchise moved in next door.,2,na,521564,523361,1797,q,1
208806,32,5,2,18,20,m,Nick.jpg,pieFS5.bmp,Nick often goes through and steals the neighbors' mail.,1,reputation,535531,537261,1730,p,0
208806,33,2,6,9,15,m,Ricky.jpg,pieFS2.bmp,Ricky is a well paid lawyer,1,resources,549416,550781,1365,q,1
208806,34,5,1,9,10,f,Fiona.jpg,pieFS5.bmp,Fiona owns an international company,1,resources,562951,564661,1710,p,0
208806,35,4,4,16,20,m,Saul.jpg,pieFS4.bmp,Saul has been unable to find a job for over a year.,2,na,576818,578001,1183,q,1
208806,36,5,1,9,10,m,Paul.jpg,pieFS5.bmp,Paul is a retiree,2,na,590153,593161,3008,q,1
208806,37,4,3,12,15,m,Michael.jpg,pieFS4.bmp,Michael lost his house in a fire,2,na,605320,606521,1201,q,1
208806,38,4,4,16,20,f,Lauren.jpg,pieFS4.bmp,Lauren used her mother's social security number to open a credit card account.,1,reputation,618688,620961,2273,q,1
208806,39,5,2,18,20,f,Beth.jpg,pieFS5.bmp,Beth received a large inheritance from a distant relative,1,resources,633122,634581,1459,p,0
208806,40,3,2,4,6,f,Fay.jpg,pieFS3.bmp,Fay is a single mother,2,na,646740,647981,1241,q,1
208806,41,4,2,8,10,m,Jared.jpg,pieFS4.bmp,Jared just bought an expensive sports car,1,resources,660141,662881,2740,q,1
208806,42,5,1,9,10,f,Jean.jpg,pieFS5.bmp,Jean is raising money to buy gifts for children in need.,2,na,675041,676922,1881,p,0
208806,43,3,2,4,6,f,Louise.jpg,pieFS3.bmp,Louise just won the lottery,1,resources,689075,690202,1127,q,1
208806,44,3,5,11,16,m,Justin.jpg,pieFS3.bmp,Justin is saving for his son's operation,2,na,702361,704182,1821,q,1
208806,45,3,4,9,13,m,Stuart.jpg,pieFS3.bmp,Stuart just found $50 on the street,1,resources,716361,717742,1381,q,1
208806,46,5,1,9,10,f,Jackie.jpg,pieFS5.bmp,Jackie illegally parks in the disabled parking spots when she can.,1,reputation,729913,731562,1649,p,0
208806,47,4,1,4,5,m,Don.jpg,pieFS4.bmp,Don is homeless,2,na,743714,745162,1448,q,1
208806,48,2,7,10,17,f,Cindy.jpg,pieFS2.bmp,Cindy's car with her bag and credit cards was recently stolen.,2,na,757315,759062,1747,q,1
208806,49,2,6,9,15,m,Mark.jpg,pieFS2.bmp,Mark is saving to pay his university fees,2,na,771216,772582,1366,q,1
208806,50,5,2,18,20,m,George.jpg,pieFS5.bmp,George bullies his employees to put in extra hours at work.,1,reputation,784735,786222,1487,p,0
208806,51,3,4,9,13,m,Ben.jpg,pieFS3.bmp,Ben lives in a luxury penthouse apartment,1,resources,798369,799522,1153,q,1
208806,52,1,10,10,20,f,Emma.jpg,pieFS1.bmp,Emma cannot afford to send her son to college.,2,na,811671,813482,1811,q,1
209452,1,5,1,9,10,f,Sharon.jpg,pieFS5.bmp,Sharon claims false expenses for her reportable work travel.,1,reputation,51033,58010,6977,p,0
209452,2,5,1,9,10,m,Justin.jpg,pieFS5.bmp,Justin just lost his job,2,na,70211,75030,4819,q,1
209452,3,3,2,4,6,f,Monica.jpg,pieFS3.bmp,Monica illegally parks in the disabled parking spots when she can.,1,reputation,87226,93730,6504,p,0
209452,4,3,2,4,6,f,Cindy.jpg,pieFS3.bmp,Cindy's car with her bag and credit cards was recently stolen.,2,na,105905,110071,4166,q,1
209452,5,4,1,4,5,f,Jackie.jpg,pieFS4.bmp,Jackie just found out that her husband has incurred a large credit card debt.,2,na,122237,126151,3914,q,1
209452,6,2,6,9,15,m,Joe.jpg,pieFS2.bmp,Joe employs illegal immigrants and pays them less than minimum wage.,1,reputation,138335,144191,5856,p,0
209452,7,4,4,16,20,f,Emily.jpg,pieFS4.bmp,Emily is a highly paid actress,1,resources,156349,163731,7382,q,1
209452,8,5,1,9,10,f,Trish.jpg,pieFS5.bmp,Trish works as a cleaner in a hotel,2,na,175877,180351,4474,q,1
209452,9,4,4,16,20,f,Emma.jpg,pieFS4.bmp,Emma's husband is a wealthy investment banker,1,resources,192525,197931,5406,q,1
209452,10,4,3,12,15,f,Miriam.jpg,pieFS4.bmp,Miriam can't afford to pay her medical bills,2,na,210089,212172,2083,q,1
209452,11,4,1,4,5,m,Ian.jpg,pieFS4.bmp,Ian cheated on his taxes and is now under investigation for tax fraud.,1,reputation,224339,229072,4733,p,0
209452,12,1,8,8,16,m,Ricky.jpg,pieFS1.bmp,Ricky could not afford his mortgage and his home was foreclosed.,2,na,241237,243492,2255,q,1
209452,13,3,2,4,6,f,Sammy.jpg,pieFS3.bmp,Sammy has to take an unpaid leave of absence because her mother broke her hip.,2,na,255638,258092,2454,q,1
209452,14,2,6,9,15,m,Jack.jpg,pieFS2.bmp,Jack is a veteran having trouble finding employment.,2,na,270238,272412,2174,q,1
209452,15,4,3,12,15,m,Jared.jpg,pieFS4.bmp,Jared is hiding his taxable income in Switzerland.,1,reputation,284589,287352,2763,p,0
209452,16,3,3,7,10,m,Nick.jpg,pieFS3.bmp,Nick stole his elderly father's prescription medications.,1,reputation,299505,302972,3467,p,0
209452,17,3,5,11,16,f,Kelly.jpg,pieFS3.bmp,Kelly got a large cash bonus from her boss,1,resources,315121,317392,2271,q,1
209452,18,5,2,18,20,m,Sam.jpg,pieFS5.bmp,Sam declared bankruptcy after he was laid off.,2,na,329538,334833,5295,p,0
209452,19,4,2,8,10,m,Mark.jpg,pieFS4.bmp,Mark takes valuables from his friends' homes when asked to house-sit.,1,reputation,346986,350953,3967,p,0
209452,20,5,1,9,10,f,Jenny.jpg,pieFS5.bmp,Jenny was a victim of identity theft and is now thousands of dollars in debt.,2,na,363117,365393,2276,q,1
209452,21,4,2,8,10,f,Fay.jpg,pieFS4.bmp,Fay is going to be evicted because she is behind on her rent,2,na,377551,379973,2422,q,1
209452,22,4,2,8,10,f,Lauren.jpg,pieFS4.bmp,Lauren works two waitressing jobs to pay her bills.,2,na,392135,394453,2318,q,1
209452,23,4,3,12,15,m,Kevin.jpg,pieFS4.bmp,Kevin was injured in a hit-and-run accident and cannot afford his medical bills.,2,na,406636,408453,1817,q,1
209452,24,4,4,16,20,m,Matt.jpg,pieFS4.bmp,Matt was mugged and had his wallet stolen.,2,na,420620,422814,2194,q,1
209452,25,5,1,9,10,f,Kay.jpg,pieFS5.bmp,Kay owns an international company,1,resources,434971,440114,5143,p,0
209452,26,1,5,5,10,f,Mary.jpg,pieFS1.bmp,Mary received a large inheritance from a distant relative,1,resources,452268,454114,1846,q,1
209452,27,2,7,10,17,f,Beth.jpg,pieFS2.bmp,Beth is a single mother,2,na,466286,468374,2088,q,1
209452,28,5,2,18,20,f,Marny.jpg,pieFS5.bmp,Marny just received a huge cash settlement,1,resources,480553,484055,3502,p,0
209452,29,4,2,8,10,m,Peter.jpg,pieFS4.bmp,Peter often goes through and steals the neighbors' mail.,1,reputation,496252,498914,2662,p,0
209452,30,3,5,11,16,m,Ben.jpg,pieFS3.bmp,Ben has been unable to find a job for over a year.,2,na,511085,512974,1889,q,1
209452,31,5,1,9,10,m,Don.jpg,pieFS5.bmp,Don lost his house in a fire,2,na,525120,527375,2255,q,1
209452,32,2,3,4,7,f,Arianna.jpg,pieFS2.bmp,Arianna just won the lottery,1,resources,539520,541735,2215,q,1
209452,33,3,2,4,6,f,Louise.jpg,pieFS3.bmp,Louise cannot afford to send her son to college.,2,na,553888,555875,1987,q,1
209452,34,2,8,12,20,f,Fiona.jpg,pieFS2.bmp,Fiona regularly fires employees to avoid promoting them.,1,reputation,568022,571915,3893,p,0
209452,35,5,1,9,10,m,Tony.jpg,pieFS5.bmp,Tony just found $50 on the street,1,resources,584071,587595,3524,p,0
209452,36,5,1,9,10,f,Maria.jpg,pieFS5.bmp,Maria takes discarded food from grocery stores to feed her children.,2,na,599770,604295,4525,q,1
209452,37,4,3,12,15,f,Jean.jpg,pieFS4.bmp,Jean steals her coworkers' tips to buy alcohol.,1,reputation,616451,619436,2985,p,0
209452,38,1,9,9,18,m,Daniel.jpg,pieFS1.bmp,Daniel underreports his company's earnings and pockets the profits.,1,reputation,631584,634696,3112,p,0
209452,39,3,6,14,20,m,Saul.jpg,pieFS3.bmp,Saul is homeless,2,na,646850,649236,2386,q,1
209452,40,3,4,9,13,m,Alan.jpg,pieFS3.bmp,Alan is a well paid lawyer,1,resources,661401,666256,4855,q,1
209452,41,3,6,14,20,m,Brad.jpg,pieFS3.bmp,Brad is saving to pay his university fees,2,na,678448,680556,2108,q,1
209452,42,3,3,7,10,f,Joanna.jpg,pieFS3.bmp,Joanna just lost her small business after a franchise moved in next door.,2,na,692749,695116,2367,q,1
209452,43,2,3,4,7,m,Edward.jpg,pieFS2.bmp,Edward is a retiree,2,na,707300,709676,2376,q,1
209452,44,5,2,18,20,m,Michael.jpg,pieFS5.bmp,Michael lives in a luxury penthouse apartment,1,resources,721833,724797,2964,p,0
209452,45,3,4,9,13,m,Taymar.jpg,pieFS3.bmp,Taymar just bought an expensive sports car,1,resources,736950,741177,4227,p,0
209452,46,5,2,18,20,m,Darnell.jpg,pieFS5.bmp,Darnell stole money from his mother's wallet.,1,reputation,753331,756217,2886,p,0
209452,47,5,1,9,10,f,Deborah.jpg,pieFS5.bmp,Deborah used her mother's social security number to open a credit card account.,1,reputation,768365,770397,2032,p,0
209452,48,4,1,4,5,m,George.jpg,pieFS4.bmp,George is saving for his son's operation,2,na,782549,784197,1648,q,1
209452,49,3,4,9,13,m,Paul.jpg,pieFS3.bmp,Paul bullies his employees to put in extra hours at work.,1,reputation,796350,799917,3567,p,0
209452,50,3,3,7,10,f,Janet.jpg,pieFS3.bmp,Janet secretly gambles with her husband's savings.,1,reputation,812082,814097,2015,p,0
209452,51,5,2,18,20,m,Stuart.jpg,pieFS5.bmp,Stuart lost his life savings when his small business failed,2,na,826250,828218,1968,q,1
209452,52,1,10,10,20,f,Eileen.jpg,pieFS1.bmp,Eileen is raising money to buy gifts for children in need.,2,na,840367,842498,2131,q,1
209468,1,1,9,9,18,m,Don.jpg,pieFS1.bmp,Don takes valuables from his friends' homes when asked to house-sit.,1,reputation,60618,65440,4822,p,0
209468,2,1,8,8,16,m,Nick.jpg,pieFS1.bmp,Nick was injured in a hit-and-run accident and cannot afford his medical bills.,2,na,77733,82401,4668,q,1
209468,3,4,1,4,5,f,Marny.jpg,pieFS4.bmp,Marny was a victim of identity theft and is now thousands of dollars in debt.,2,na,94730,96501,1771,q,1
209468,4,2,3,4,7,m,Jared.jpg,pieFS2.bmp,Jared could not afford his mortgage and his home was foreclosed.,2,na,108815,111481,2666,q,1
209468,5,3,3,7,10,f,Emily.jpg,pieFS3.bmp,Emily works two waitressing jobs to pay her bills.,2,na,123798,125642,1844,q,1
209468,6,3,5,11,16,f,Beth.jpg,pieFS3.bmp,Beth claims false expenses for her reportable work travel.,1,reputation,137949,140642,2693,p,0
209468,7,5,1,9,10,f,Kelly.jpg,pieFS5.bmp,Kelly just received a huge cash settlement,1,resources,152983,157863,4880,q,1
209468,8,3,2,4,6,f,Trish.jpg,pieFS3.bmp,Trish works as a cleaner in a hotel,2,na,170147,171983,1836,q,1
209468,9,4,3,12,15,f,Deborah.jpg,pieFS4.bmp,Deborah takes discarded food from grocery stores to feed her children.,2,na,184282,186123,1841,q,1
209468,10,3,6,14,20,m,Kevin.jpg,pieFS3.bmp,Kevin was mugged and had his wallet stolen.,2,na,198433,200164,1731,q,1
209468,11,4,2,8,10,m,Jack.jpg,pieFS4.bmp,Jack often goes through and steals the neighbors' mail.,1,reputation,212417,214504,2087,p,0
209468,12,4,3,12,15,m,Justin.jpg,pieFS4.bmp,Justin is hiding his taxable income in Switzerland.,1,reputation,226752,229324,2572,p,0
209468,13,4,1,4,5,m,Michael.jpg,pieFS4.bmp,Michael has been unable to find a job for over a year.,2,na,241569,244105,2536,q,1
209468,14,2,8,12,20,f,Jenny.jpg,pieFS2.bmp,Jenny steals her coworkers' tips to buy alcohol.,1,reputation,256352,259445,3093,p,0
209468,15,2,7,10,17,f,Maria.jpg,pieFS2.bmp,Maria just lost her small business after a franchise moved in next door.,2,na,271685,277046,5361,q,1
209468,16,3,4,9,13,m,Taymar.jpg,pieFS3.bmp,Taymar underreports his company's earnings and pockets the profits.,1,reputation,289266,291466,2200,p,0
209468,17,1,5,5,10,f,Joanna.jpg,pieFS1.bmp,Joanna used her mother's social security number to open a credit card account.,1,reputation,303684,305466,1782,p,0
209468,18,4,4,16,20,f,Sharon.jpg,pieFS4.bmp,Sharon's husband is a wealthy investment banker,1,resources,317685,319627,1942,p,0
209468,19,5,2,18,20,m,Paul.jpg,pieFS5.bmp,Paul is a well paid lawyer,1,resources,331852,333667,1815,p,0
209468,20,4,3,12,15,m,Stuart.jpg,pieFS4.bmp,Stuart lost his house in a fire,2,na,345870,347588,1718,q,1
209468,21,5,1,9,10,m,Ricky.jpg,pieFS5.bmp,Ricky is a retiree,2,na,359805,363448,3643,q,1
209468,22,4,2,8,10,f,Fay.jpg,pieFS4.bmp,Fay can't afford to pay her medical bills,2,na,375654,377168,1514,q,1
209468,23,5,1,9,10,m,George.jpg,pieFS5.bmp,George just bought an expensive sports car,1,resources,389372,392149,2777,q,1
209468,24,5,1,9,10,f,Fiona.jpg,pieFS5.bmp,Fiona is going to be evicted because she is behind on her rent,2,na,404389,406329,1940,q,1
209468,25,4,3,12,15,f,Miriam.jpg,pieFS4.bmp,Miriam owns an international company,1,resources,418557,421450,2893,p,0
209468,26,1,10,10,20,f,Cindy.jpg,pieFS1.bmp,Cindy is raising money to buy gifts for children in need.,2,na,433674,435530,1856,q,1
209468,27,3,3,7,10,m,Saul.jpg,pieFS3.bmp,Saul just found $50 on the street,1,resources,447758,449850,2092,q,1
209468,28,5,1,9,10,m,Joe.jpg,pieFS5.bmp,Joe is saving for his son's operation,2,na,462076,464011,1935,q,1
209468,29,3,4,9,13,m,Daniel.jpg,pieFS3.bmp,Daniel bullies his employees to put in extra hours at work.,1,reputation,476227,480031,3804,p,0
209468,30,2,3,4,7,f,Jean.jpg,pieFS2.bmp,Jean illegally parks in the disabled parking spots when she can.,1,reputation,492259,494811,2552,p,0
209468,31,4,4,16,20,m,Ian.jpg,pieFS4.bmp,Ian is homeless,2,na,507076,508992,1916,q,1
209468,32,5,1,9,10,f,Janet.jpg,pieFS5.bmp,Janet received a large inheritance from a distant relative,1,resources,521227,523632,2405,q,1
209468,33,5,2,18,20,m,Peter.jpg,pieFS5.bmp,Peter is saving to pay his university fees,2,na,535861,537613,1752,q,1
209468,34,4,1,4,5,m,Ben.jpg,pieFS4.bmp,Ben lives in a luxury penthouse apartment,1,resources,549845,551613,1768,q,1
209468,35,4,2,8,10,m,Darnell.jpg,pieFS4.bmp,Darnell stole money from his mother's wallet.,1,reputation,563947,565773,1826,p,0
209468,36,2,6,9,15,m,Brad.jpg,pieFS2.bmp,Brad lost his life savings when his small business failed,2,na,578014,579634,1620,q,1
209468,37,5,2,18,20,m,Edward.jpg,pieFS5.bmp,Edward just lost his job,2,na,591882,593774,1892,q,1
209468,38,2,6,9,15,m,Alan.jpg,pieFS2.bmp,Alan employs illegal immigrants and pays them less than minimum wage.,1,reputation,605984,608074,2090,p,0
209468,39,3,2,4,6,f,Arianna.jpg,pieFS3.bmp,Arianna is a single mother,2,na,620301,622035,1734,q,1
209468,40,3,3,7,10,f,Kay.jpg,pieFS3.bmp,Kay just won the lottery,1,resources,634269,636015,1746,q,1
209468,41,5,2,18,20,m,Mark.jpg,pieFS5.bmp,Mark cheated on his taxes and is now under investigation for tax fraud.,1,reputation,648237,650356,2119,p,0
209468,42,5,1,9,10,f,Jackie.jpg,pieFS5.bmp,Jackie's car with her bag and credit cards was recently stolen.,2,na,662588,664236,1648,q,1
209468,43,4,2,8,10,f,Eileen.jpg,pieFS4.bmp,Eileen just found out that her husband has incurred a large credit card debt.,2,na,676456,679076,2620,q,1
209468,44,3,6,14,20,m,Sam.jpg,pieFS3.bmp,Sam is a veteran having trouble finding employment.,2,na,691323,692957,1634,q,1
209468,45,3,2,4,6,f,Louise.jpg,pieFS3.bmp,Louise cannot afford to send her son to college.,2,na,705191,706857,1666,q,1
209468,46,5,1,9,10,f,Lauren.jpg,pieFS5.bmp,Lauren is a highly paid actress,1,resources,719059,721017,1958,q,1
209468,47,5,1,9,10,f,Sammy.jpg,pieFS5.bmp,Sammy has to take an unpaid leave of absence because her mother broke her hip.,2,na,733260,734958,1698,q,1
209468,48,3,4,9,13,m,Tony.jpg,pieFS3.bmp,Tony stole his elderly father's prescription medications.,1,reputation,747178,749078,1900,p,0
209468,49,3,5,11,16,m,Matt.jpg,pieFS3.bmp,Matt declared bankruptcy after he was laid off.,2,na,761296,763438,2142,q,1
209468,50,4,4,16,20,f,Emma.jpg,pieFS4.bmp,Emma regularly fires employees to avoid promoting them.,1,reputation,775663,775779,116,p,0
209468,51,5,2,18,20,f,Monica.jpg,pieFS5.bmp,Monica got a large cash bonus from her boss,1,resources,788016,789539,1523,q,1
209468,52,3,2,4,6,f,Mary.jpg,pieFS3.bmp,Mary secretly gambles with her husband's savings.,1,reputation,801768,803220,1452,p,0
209662,1,5,1,9,10,m,Jared.jpg,pieFS5.bmp,Jared is a retiree,2,na,71982,129931,57949,p,0
209662,2,3,4,9,13,m,Joe.jpg,pieFS3.bmp,Joe just bought an expensive sports car,1,resources,142204,151672,9468,p,0
209662,3,4,2,8,10,f,Jenny.jpg,pieFS4.bmp,Jenny has to take an unpaid leave of absence because her mother broke her hip.,2,na,163913,168672,4759,q,1
209662,4,3,6,14,20,m,Mark.jpg,pieFS3.bmp,Mark was mugged and had his wallet stolen.,2,na,180910,185272,4362,q,1
209662,5,4,1,4,5,m,Edward.jpg,pieFS4.bmp,Edward is saving for his son's operation,2,na,197492,206613,9121,q,1
209662,6,4,2,8,10,m,Brad.jpg,pieFS4.bmp,Brad often goes through and steals the neighbors' mail.,1,reputation,218835,222033,3198,p,0
209662,7,4,3,12,15,f,Deborah.jpg,pieFS4.bmp,Deborah got a large cash bonus from her boss,1,resources,234267,238593,4326,p,0
209662,8,1,5,5,10,f,Fay.jpg,pieFS1.bmp,Fay's husband is a wealthy investment banker,1,resources,250832,256194,5362,q,1
209662,9,3,6,14,20,m,Ben.jpg,pieFS3.bmp,Ben has been unable to find a job for over a year.,2,na,268413,278914,10501,q,1
209662,10,5,1,9,10,m,Tony.jpg,pieFS5.bmp,Tony lost his house in a fire,2,na,291137,293674,2537,q,1
209662,11,3,2,4,6,f,Miriam.jpg,pieFS3.bmp,Miriam can't afford to pay her medical bills,2,na,305904,308694,2790,q,1
209662,12,3,3,7,10,f,Arianna.jpg,pieFS3.bmp,Arianna is going to be evicted because she is behind on her rent,2,na,320904,323514,2610,q,1
209662,13,4,3,12,15,m,Ricky.jpg,pieFS4.bmp,Ricky bullies his employees to put in extra hours at work.,1,reputation,335721,339534,3813,p,0
209662,14,3,2,4,6,f,Janet.jpg,pieFS3.bmp,Janet owns an international company,1,resources,351753,365194,13441,p,0
209662,15,4,2,8,10,m,Nick.jpg,pieFS4.bmp,Nick just found $50 on the street,1,resources,377374,385274,7900,p,0
209662,16,2,6,9,15,m,Don.jpg,pieFS2.bmp,Don is homeless,2,na,397468,402515,5047,q,1
209662,17,4,3,12,15,f,Cindy.jpg,pieFS4.bmp,Cindy was a victim of identity theft and is now thousands of dollars in debt.,2,na,414682,418995,4313,q,1
209662,18,4,3,12,15,m,Peter.jpg,pieFS4.bmp,Peter is saving to pay his university fees,2,na,431147,436915,5768,p,0
209662,19,1,9,9,18,m,Saul.jpg,pieFS1.bmp,Saul lives in a luxury penthouse apartment,1,resources,449077,454615,5538,q,1
209662,20,3,5,11,16,f,Trish.jpg,pieFS3.bmp,Trish received a large inheritance from a distant relative,1,resources,466774,471835,5061,p,0
209662,21,2,6,9,15,m,Ian.jpg,pieFS2.bmp,Ian stole money from his mother's wallet.,1,reputation,483988,486876,2888,p,0
209662,22,1,8,8,16,m,Daniel.jpg,pieFS1.bmp,Daniel just lost his job,2,na,499022,501976,2954,q,1
209662,23,1,10,10,20,f,Jean.jpg,pieFS1.bmp,Jean works two waitressing jobs to pay her bills.,2,na,514121,517556,3435,q,1
209662,24,5,2,18,20,m,Justin.jpg,pieFS5.bmp,Justin employs illegal immigrants and pays them less than minimum wage.,1,reputation,529721,532876,3155,p,0
209662,25,2,8,12,20,f,Monica.jpg,pieFS2.bmp,Monica just received a huge cash settlement,1,resources,545053,548236,3183,p,0
209662,26,2,7,10,17,f,Sharon.jpg,pieFS2.bmp,Sharon is a single mother,2,na,560386,563276,2890,q,1
209662,27,5,2,18,20,m,Kevin.jpg,pieFS5.bmp,Kevin lost his life savings when his small business failed,2,na,575436,580157,4721,q,1
209662,28,3,5,11,16,m,Paul.jpg,pieFS3.bmp,Paul could not afford his mortgage and his home was foreclosed.,2,na,592317,594897,2580,q,1
209662,29,5,1,9,10,f,Eileen.jpg,pieFS5.bmp,Eileen takes discarded food from grocery stores to feed her children.,2,na,607067,611957,4890,q,1
209662,30,3,4,9,13,m,Jack.jpg,pieFS3.bmp,Jack cheated on his taxes and is now under investigation for tax fraud.,1,reputation,624132,628237,4105,p,0
209662,31,3,3,7,10,f,Maria.jpg,pieFS3.bmp,Maria steals her coworkers' tips to buy alcohol.,1,reputation,640397,642997,2600,p,0
209662,32,3,4,9,13,m,George.jpg,pieFS3.bmp,George is hiding his taxable income in Switzerland.,1,reputation,655147,658277,3130,p,0
209662,33,2,3,4,7,m,Matt.jpg,pieFS2.bmp,Matt is a veteran having trouble finding employment.,2,na,670430,673477,3047,q,1
209662,34,5,1,9,10,m,Taymar.jpg,pieFS5.bmp,Taymar underreports his company's earnings and pockets the profits.,1,reputation,685630,688978,3348,p,0
209662,35,3,2,4,6,f,Marny.jpg,pieFS3.bmp,Marny just lost her small business after a franchise moved in next door.,2,na,701146,704058,2912,q,1
209662,36,4,1,4,5,m,Alan.jpg,pieFS4.bmp,Alan is a well paid lawyer,1,resources,716229,721238,5009,p,0
209662,37,5,1,9,10,f,Emma.jpg,pieFS5.bmp,Emma just won the lottery,1,resources,733393,738038,4645,p,0
209662,38,4,4,16,20,f,Joanna.jpg,pieFS4.bmp,Joanna used her mother's social security number to open a credit card account.,1,reputation,750208,753078,2870,p,0
209662,39,3,3,7,10,m,Stuart.jpg,pieFS3.bmp,Stuart stole his elderly father's prescription medications.,1,reputation,765274,767859,2585,p,0
209662,40,5,1,9,10,f,Lauren.jpg,pieFS5.bmp,Lauren is raising money to buy gifts for children in need.,2,na,780058,783099,3041,q,1
209662,41,2,3,4,7,f,Kelly.jpg,pieFS2.bmp,Kelly illegally parks in the disabled parking spots when she can.,1,reputation,795257,798239,2982,q,1
209662,42,4,2,8,10,f,Kay.jpg,pieFS4.bmp,Kay cannot afford to send her son to college.,2,na,810407,810579,172,q,1
209662,43,3,2,4,6,f,Jackie.jpg,pieFS3.bmp,Jackie's car with her bag and credit cards was recently stolen.,2,na,822726,826239,3513,q,1
209662,44,4,4,16,20,m,Sam.jpg,pieFS4.bmp,Sam declared bankruptcy after he was laid off.,2,na,838426,840919,2493,p,0
209662,45,5,1,9,10,f,Mary.jpg,pieFS5.bmp,Mary regularly fires employees to avoid promoting them.,1,reputation,853109,855279,2170,p,0
209662,46,5,2,18,20,m,Darnell.jpg,pieFS5.bmp,Darnell takes valuables from his friends' homes when asked to house-sit.,1,reputation,867476,870720,3244,p,0
209662,47,4,4,16,20,f,Beth.jpg,pieFS4.bmp,Beth secretly gambles with her husband's savings.,1,reputation,882876,885000,2124,p,0
209662,48,5,2,18,20,f,Louise.jpg,pieFS5.bmp,Louise claims false expenses for her reportable work travel.,1,reputation,897160,899700,2540,p,0
209662,49,5,2,18,20,m,Michael.jpg,pieFS5.bmp,Michael was injured in a hit-and-run accident and cannot afford his medical bills.,2,na,911860,914340,2480,q,1
209662,50,5,1,9,10,f,Emily.jpg,pieFS5.bmp,Emily just found out that her husband has incurred a large credit card debt.,2,na,926510,930680,4170,q,1
209662,51,5,1,9,10,f,Sammy.jpg,pieFS5.bmp,Sammy is a highly paid actress,1,resources,942842,946140,3298,p,0
209662,52,4,1,4,5,f,Fiona.jpg,pieFS4.bmp,Fiona works as a cleaner in a hotel,2,na,958308,961121,2813,q,1
209847,1,5,1,9,10,f,Jenny.jpg,pieFS5.bmp,Jenny works two waitressing jobs to pay her bills.,2,na,54536,69125,14589,q,1
209847,2,3,4,9,13,m,George.jpg,pieFS3.bmp,George employs illegal immigrants and pays them less than minimum wage.,1,reputation,81323,84005,2682,q,1
209847,3,2,3,4,7,f,Joanna.jpg,pieFS2.bmp,Joanna just received a huge cash settlement,1,resources,96206,98386,2180,q,1
209847,4,4,2,8,10,f,Arianna.jpg,pieFS4.bmp,Arianna is a single mother,2,na,110574,113386,2812,q,1
209847,5,4,2,8,10,f,Jackie.jpg,pieFS4.bmp,Jackie takes discarded food from grocery stores to feed her children.,2,na,125574,127406,1832,q,1
209847,6,1,5,5,10,f,Monica.jpg,pieFS1.bmp,Monica steals her coworkers' tips to buy alcohol.,1,reputation,139575,142866,3291,p,0
209847,7,3,6,14,20,m,Nick.jpg,pieFS3.bmp,Nick lost his life savings when his small business failed,2,na,155041,157187,2146,q,1
209847,8,5,1,9,10,m,Joe.jpg,pieFS5.bmp,Joe could not afford his mortgage and his home was foreclosed.,2,na,169358,171247,1889,q,1
209847,9,3,3,7,10,f,Eileen.jpg,pieFS3.bmp,Eileen just lost her small business after a franchise moved in next door.,2,na,183426,185387,1961,q,1
209847,10,3,2,4,6,f,Emma.jpg,pieFS3.bmp,Emma just won the lottery,1,resources,197544,199668,2124,p,0
209847,11,2,6,9,15,m,Kevin.jpg,pieFS2.bmp,Kevin cheated on his taxes and is now under investigation for tax fraud.,1,reputation,211845,215968,4123,q,1
209847,12,5,2,18,20,m,Ben.jpg,pieFS5.bmp,Ben is a veteran having trouble finding employment.,2,na,228127,230028,1901,q,1
209847,13,3,5,11,16,f,Cindy.jpg,pieFS3.bmp,Cindy used her mother's social security number to open a credit card account.,1,reputation,242178,244848,2670,p,0
209847,14,3,4,9,13,m,Alan.jpg,pieFS3.bmp,Alan is hiding his taxable income in Switzerland.,1,reputation,256994,259189,2195,p,0
209847,15,2,7,10,17,f,Lauren.jpg,pieFS2.bmp,Lauren is raising money to buy gifts for children in need.,2,na,271345,273029,1684,q,1
209847,16,5,1,9,10,f,Jean.jpg,pieFS5.bmp,Jean illegally parks in the disabled parking spots when she can.,1,reputation,285180,288789,3609,p,0
209847,17,4,2,8,10,m,Darnell.jpg,pieFS4.bmp,Darnell stole his elderly father's prescription medications.,1,reputation,300946,303270,2324,p,0
209847,18,1,10,10,20,f,Kelly.jpg,pieFS1.bmp,Kelly's car with her bag and credit cards was recently stolen.,2,na,315430,324970,9540,q,1
209847,19,4,4,16,20,m,Mark.jpg,pieFS4.bmp,Mark declared bankruptcy after he was laid off.,2,na,337122,339530,2408,q,1
209847,20,4,3,12,15,f,Deborah.jpg,pieFS4.bmp,Deborah just found out that her husband has incurred a large credit card debt.,2,na,351723,354750,3027,q,1
209847,21,5,2,18,20,m,Paul.jpg,pieFS5.bmp,Paul underreports his company's earnings and pockets the profits.,1,reputation,366906,368931,2025,p,0
209847,22,3,3,7,10,m,Stuart.jpg,pieFS3.bmp,Stuart takes valuables from his friends' homes when asked to house-sit.,1,reputation,381090,382831,1741,p,0
209847,23,2,3,4,7,m,Brad.jpg,pieFS2.bmp,Brad was injured in a hit-and-run accident and cannot afford his medical bills.,2,na,395008,397551,2543,q,1
209847,24,3,2,4,6,f,Sharon.jpg,pieFS3.bmp,Sharon cannot afford to send her son to college.,2,na,409742,411432,1690,q,1
209847,25,5,2,18,20,f,Maria.jpg,pieFS5.bmp,Maria is a highly paid actress,1,resources,423593,430232,6639,p,0
209847,26,4,1,4,5,m,Justin.jpg,pieFS4.bmp,Justin is a well paid lawyer,1,resources,442389,444152,1763,p,0
209847,27,5,2,18,20,m,Peter.jpg,pieFS5.bmp,Peter was mugged and had his wallet stolen.,2,na,456307,458212,1905,q,1
209847,28,3,4,9,13,m,Ian.jpg,pieFS3.bmp,Ian often goes through and steals the neighbors' mail.,1,reputation,470358,472133,1775,p,0
209847,29,4,4,16,20,f,Fiona.jpg,pieFS4.bmp,Fiona regularly fires employees to avoid promoting them.,1,reputation,484292,485873,1581,p,0
209847,30,2,6,9,15,m,Daniel.jpg,pieFS2.bmp,Daniel is a retiree,2,na,498027,500373,2346,q,1
209847,31,4,3,12,15,m,Jack.jpg,pieFS4.bmp,Jack has been unable to find a job for over a year.,2,na,512528,514813,2285,p,0
209847,32,5,1,9,10,f,Janet.jpg,pieFS5.bmp,Janet secretly gambles with her husband's savings.,1,reputation,526962,528814,1852,p,0
209847,33,1,8,8,16,m,Tony.jpg,pieFS1.bmp,Tony lost his house in a fire,2,na,540963,545694,4731,p,0
209847,34,4,3,12,15,f,Louise.jpg,pieFS4.bmp,Louise claims false expenses for her reportable work travel.,1,reputation,557844,559854,2010,p,0
209847,35,3,2,4,6,f,Emily.jpg,pieFS3.bmp,Emily has to take an unpaid leave of absence because her mother broke her hip.,2,na,572028,575015,2987,q,1
209847,36,5,2,18,20,m,Jared.jpg,pieFS5.bmp,Jared just bought an expensive sports car,1,resources,587178,589195,2017,p,0
209847,37,5,1,9,10,f,Fay.jpg,pieFS5.bmp,Fay works as a cleaner in a hotel,2,na,601362,603375,2013,q,1
209847,38,5,1,9,10,f,Beth.jpg,pieFS5.bmp,Beth's husband is a wealthy investment banker,1,resources,615563,617615,2052,p,0
209847,39,3,3,7,10,f,Marny.jpg,pieFS3.bmp,Marny got a large cash bonus from her boss,1,resources,629764,631776,2012,q,1
209847,40,3,6,14,20,m,Edward.jpg,pieFS3.bmp,Edward is saving for his son's operation,2,na,643932,645516,1584,q,1
209847,41,1,9,9,18,m,Saul.jpg,pieFS1.bmp,Saul just found $50 on the street,1,resources,657683,659776,2093,q,1
209847,42,4,1,4,5,m,Matt.jpg,pieFS4.bmp,Matt is homeless,2,na,671934,673596,1662,q,1
209847,43,4,2,8,10,m,Ricky.jpg,pieFS4.bmp,Ricky bullies his employees to put in extra hours at work.,1,reputation,685769,688017,2248,p,0
209847,44,5,1,9,10,f,Sammy.jpg,pieFS5.bmp,Sammy was a victim of identity theft and is now thousands of dollars in debt.,2,na,700169,701917,1748,q,1
209847,45,3,5,11,16,m,Sam.jpg,pieFS3.bmp,Sam is saving to pay his university fees,2,na,714071,715757,1686,q,1
209847,46,5,1,9,10,m,Michael.jpg,pieFS5.bmp,Michael lives in a luxury penthouse apartment,1,resources,727905,729537,1632,q,1
209847,47,4,1,4,5,f,Kay.jpg,pieFS4.bmp,Kay can't afford to pay her medical bills,2,na,741690,743158,1468,q,1
209847,48,5,1,9,10,m,Taymar.jpg,pieFS5.bmp,Taymar just lost his job,2,na,755308,756738,1430,q,1
209847,49,3,2,4,6,f,Miriam.jpg,pieFS3.bmp,Miriam is going to be evicted because she is behind on her rent,2,na,768893,770658,1765,q,1
209847,50,4,4,16,20,f,Trish.jpg,pieFS4.bmp,Trish owns an international company,1,resources,782811,784858,2047,p,0
209847,51,4,3,12,15,m,Don.jpg,pieFS4.bmp,Don stole money from his mother's wallet.,1,reputation,797012,798979,1967,p,0
209847,52,2,8,12,20,f,Mary.jpg,pieFS2.bmp,Mary received a large inheritance from a distant relative,1,resources,811129,814699,3570,q,1
210079,1,4,3,12,15,m,Jared.jpg,pieFS4.bmp,Jared is hiding his taxable income in Switzerland.,1,reputation,57283,61839,4556,q,1
210079,2,4,1,4,5,m,Tony.jpg,pieFS4.bmp,Tony often goes through and steals the neighbors' mail.,1,reputation,74031,75739,1708,p,0
210079,3,5,2,18,20,m,George.jpg,pieFS5.bmp,George underreports his company's earnings and pockets the profits.,1,reputation,87932,89499,1567,p,0
210079,4,2,7,10,17,f,Sammy.jpg,pieFS2.bmp,Sammy's car with her bag and credit cards was recently stolen.,2,na,101683,103859,2176,p,0
210079,5,3,2,4,6,f,Kelly.jpg,pieFS3.bmp,Kelly just found out that her husband has incurred a large credit card debt.,2,na,116033,117659,1626,p,0
210079,6,5,2,18,20,f,Kay.jpg,pieFS5.bmp,Kay secretly gambles with her husband's savings.,1,reputation,129834,130319,485,p,0
210079,7,5,1,9,10,f,Jean.jpg,pieFS5.bmp,Jean is a highly paid actress,1,resources,142470,146500,4030,q,1
210079,8,5,1,9,10,f,Miriam.jpg,pieFS5.bmp,Miriam claims false expenses for her reportable work travel.,1,reputation,158669,160340,1671,p,0
210079,9,1,8,8,16,m,Mark.jpg,pieFS1.bmp,Mark has been unable to find a job for over a year.,2,na,172520,174120,1600,p,0
210079,10,2,6,9,15,m,Ben.jpg,pieFS2.bmp,Ben lost his house in a fire,2,na,186271,188720,2449,p,0
